timestamp,LinearAccelerometerSensor,AccX,AccY,AccZ
1770770129278,0.03830926475839664,-1.0879501104354858,9.267000198364258,-3.20805025100708
1770770129310,,-1.1050500869750977,9.23805046081543,-3.2029502391815186
1770770129324,,-1.240950107574463,,
1770770129325,,,9.055950164794922,-3.1840500831604004
1770770129360,0.06852165102693084,-1.1340000629425049,9.223950386047363,-3.1930501461029053
1770770129381,,-1.13100004196167,9.20895004272461,-3.2149500846862793
1770770129417,,-1.117050051689148,9.219000816345215,-3.220050096511841
1770770129426,0.05468907737160088,-1.0930500030517578,,
1770770129427,,,9.25200080871582,-3.205050230026245
1770770129446,,-1.045050024986267,9.259950637817383,-3.217050075531006
1770770129482,0.0576799241072364,-1.0360500812530518,9.26205062866211,-3.1720502376556396
1770770129512,,-1.0069500207901,9.181050300598145,-3.166950225830078
1770770129542,0.12726138909340912,,,
1770770129543,,-1.045050024986267,,-3.1720502376556396
1770770129544,,,9.23805046081543,
1770770129580,,-1.141050100326538,9.23805046081543,-3.307950258255005
1770770129599,,-1.2630000114440918,9.163949966430664,-3.3229501247406006
1770770129618,,-1.327950119972229,,-3.3199501037597656
1770770129619,,,9.211950302124023,
1770770129624,0.10482821402017882,-1.3320000171661377,9.142050743103027,-3.295950174331665
1770770129647,,-1.2769500017166138,9.166050910949707,-3.3349502086639404
1770770129683,0.05940216597435582,-1.2199500799179077,,
1770770129684,,-1.1359500885009766,9.268950462341309,-3.3540000915527344
1770770129709,,-1.1980500221252441,,-3.2320501804351807
1770770129710,,,9.157050132751465,
1770770129744,0.15578458731739128,,,
1770770129745,,-1.366050124168396,9.183000564575195,-3.2340002059936523
1770770129765,,-1.2889500856399536,9.175950050354004,-3.1410000324249268
1770770129805,0.15399827311874373,-1.3420500755310059,9.22800064086914,-3.1410000324249268
1770770129850,,-1.2079501152038574,9.183000564575195,-3.0709500312805176
1770770129875,,-1.1479500532150269,9.163949966430664,-3.2340002059936523
1770770129888,,,9.12600040435791,-3.3390002250671387
1770770129889,0.2139010642059108,-1.2820500135421753,,
1770770129918,,-1.3200000524520874,,
1770770129919,,,9.082050323486328,-3.44700026512146
1770770129929,,-1.371000051498413,9.091950416564941,-3.43500018119812
1770770129947,0.3297823421503926,-1.3680000305175781,9.109050750732422,-3.4930500984191895
1770770129990,,-1.3230000734329224,9.123000144958496,-3.52905011177063
1770770130008,0.30445329516853664,-1.215000033378601,9.1399507522583,-3.5310001373291016
1770770130041,,-1.2130500078201294,,-3.598050117492676
1770770130042,,,9.085050582885742,
1770770130051,,-1.071000099182129,9.11400032043457,-3.5719501972198486
1770770130077,0.2891593075075998,-1.0140000581741333,9.085050582885742,-3.624000072479248
1770770130102,,-0.973050057888031,,-3.636000156402588
1770770130103,,,9.091950416564941,
1770770130120,,-0.8970000147819519,,-3.6000001430511475
1770770130121,,,9.159000396728516,
1770770130150,0.23586655301634823,,,
1770770130151,,-0.9850500226020813,9.103950500488281,-3.6000001430511475
1770770130186,,-0.8179500102996826,9.20205020904541,-3.315000057220459
1770770130204,,-0.9799500703811646,9.223950386047363,-3.2910001277923584
1770770130213,0.40551800070412775,,,
1770770130214,,-1.117050051689148,9.135000228881836,-3.258000135421753
1770770130253,,-1.1050500869750977,9.037050247192383,-3.2820000648498535
1770770130269,0.18595713383531862,,,
1770770130270,,-0.47505003213882446,9.508950233459473,-3.1810500621795654
1770770130315,,-0.10200000554323196,,
1770770130316,,,9.372000694274902,-2.8530001640319824
1770770130330,0.7041758420071809,0.10095000267028809,,-2.6020500659942627
1770770130331,,,9.568050384521484,
1770770130369,,0.2370000183582306,9.616050720214844,-2.4370501041412354
1770770130387,,0.5580000281333923,,
1770770130388,,,9.343050003051758,-1.8979500532150269
1770770130412,1.4149021585289348,1.4770500659942627,,
1770770130413,,1.3480501174926758,9.25005054473877,-1.5480000972747803
1770770130454,,1.7500500679016113,,
1770770130455,,2.2510499954223633,10.591050148010254,-2.0460000038146973
1770770130474,0.8936145866620795,1.516050100326538,,-1.612950086593628
1770770130475,,,9.766950607299805,
1770770130520,,-0.006000000052154064,9.420000076293945,-3.078000068664551
1770770130538,2.618756179984364,-1.7539501190185547,8.829000473022461,-3.805950164794922
1770770130587,,-1.8349500894546509,,
1770770130588,,-1.7509500980377197,8.455050468444824,-3.664950132369995
1770770130595,1.8388669930172825,-1.9999500513076782,8.884050369262695,-3.8520002365112305
1770770130626,,-0.8850000500679016,8.592000007629395,-3.138000249862671
1770770130645,,0.2179500162601471,8.754000663757324,-2.986950159072876
1770770130677,1.264325970516059,,,
1770770130678,,1.2720000743865967,8.970000267028809,-3.0229501724243164
1770770130704,,3.01200008392334,9.92805004119873,-3.009000062942505
1770770130721,,3.472050189971924,,-2.5609500408172607
1770770130722,,,9.922950744628906,
1770770130735,1.9207345944042122,3.201000213623047,,
1770770130736,,,9.48705005645752,-2.4820501804351807
1770770130791,,2.968950033187866,,-1.7209501266479492
1770770130792,,,9.901050567626953,
1770770130796,2.5013720562010966,,,
1770770130797,,3.739950180053711,,
1770770130798,,,8.95305061340332,-0.4140000343322754
1770770130820,,2.830050230026245,10.746000289916992,-1.1749500036239624
1770770130856,,2.260050058364868,10.404000282287598,-1.4910000562667847
1770770130857,1.2119258169976646,,,-1.2199500799179077
1770770130924,,1.0920000076293945,9.334050178527832,-1.651050090789795
1770770130937,1.55083943985699,,,
1770770130938,,0.6490500569343567,8.508000373840332,-1.8139500617980957
1770770130977,,1.0080000162124634,9.147000312805176,-1.9150501489639282
1770770130995,,1.8049501180648804,9.645000457763672,-2.257050037384033
1770770131005,0.5162779690552982,,,
1770770131006,,2.0470499992370605,9.802950859069824,-2.319000005722046
1770770131020,,2.104950189590454,9.187950134277344,-2.31000018119812
1770770131057,,2.325000047683716,9.38895034790039,-2.5639500617980957
1770770131060,0.6705619045699007,,,
1770770131061,,2.890050172805786,9.352950096130371,-2.431950092315674
1770770131084,,2.7679500579833984,9.47700023651123,-2.311950206756592
1770770131120,0.7086344294032537,2.671950101852417,9.367050170898438,-2.4370501041412354
1770770131191,,2.8660502433776855,9.256950378417969,-2.848950147628784
1770770131201,0.6214731605040666,2.5480501651763916,9.540000915527344,-2.650050163269043
1770770131249,,2.332050085067749,,
1770770131250,,1.8919501304626465,9.003000259399414,-2.539950132369995
1770770131251,,,8.890950202941895,
1770770131265,0.7972893105352385,,,
1770770131266,,1.602000117301941,9.106050491333008,-2.3340001106262207
1770770131305,,1.3150500059127808,,
1770770131306,,1.114050030708313,9.925050735473633,-2.371950149536133
1770770131326,1.0580557268858686,,,
1770770131327,,1.2600001096725464,8.991000175476074,-1.9270501136779785
1770770131358,,1.284000039100647,8.829000473022461,-1.6560001373291016
1770770131387,0.8456536822589645,,,
1770770131388,,1.2330000400543213,9.406050682067871,-2.053950071334839
1770770131415,,1.3069500923156738,,
1770770131416,,,9.47700023651123,-1.5319501161575317
1770770131460,,1.5090000629425049,,-1.6609500646591187
1770770131461,,,9.136950492858887,-1.7419500350952148
1770770131464,0.34426991202403806,1.9780501127243042,9.576000213623047,-1.4359500408172607
1770770131524,,2.4690001010894775,9.729000091552734,-1.2420001029968262
1770770131526,1.3885883461769906,,,
1770770131527,,3.4050002098083496,10.069050788879395,-2.5350000858306885
1770770131582,,4.011000156402588,9.397950172424316,-1.29705011844635
1770770131586,1.62732676672532,4.105950355529785,9.24000072479248,-0.8160000443458557
1770770131621,,3.388050079345703,9.822000503540039,-0.41100001335144043
1770770131633,,4.159049987792969,10.006950378417969,-0.3679500222206116
1770770131646,0.8532527981568891,,,
1770770131647,,4.204950332641602,9.420000076293945,-0.7660500407218933
1770770131690,,3.595950126647949,9.858000755310059,-0.6529500484466553
1770770131727,,3.040950059890747,9.832050323486328,-1.2300000190734863
1770770131728,0.4815521740657261,,,
1770770131790,1.4596628758765355,,,
1770770131792,,2.260050058364868,9.043950080871582,-1.596000075340271
1770770131824,,2.871000051498413,9.109050750732422,-1.636950135231018
1770770131849,0.6149274514601791,1.8610501289367676,,-2.0029501914978027
1770770131850,,,10.204950332641602,-1.371000051498413
1770770131911,0.4425953234624579,,,
1770770131912,,2.3940000534057617,,
1770770131913,,2.6580002307891846,9.75,-2.3770501613616943
1770770131914,,,8.781000137329102,
1770770131966,,3.015000104904175,9.111000061035156,-1.752000093460083
1770770131992,0.5157161978786933,,,
1770770131993,,2.7780001163482666,9.949050903320312,-2.0680501461029053
1770770132020,,2.584050178527832,,
1770770132021,,,9.22095012664795,-2.137050151824951
1770770132054,0.44212653882268743,,,
1770770132055,,2.533050060272217,9.496950149536133,-2.0680501461029053
1770770132056,,,9.43695068359375,
1770770132074,,2.0280001163482666,,-1.7880001068115234
1770770132075,,,9.670950889587402,
1770770132118,0.9166506130084326,,,
1770770132119,,2.2510499954223633,8.872050285339355,-1.7950501441955566
1770770132174,0.5656994849631717,2.4469501972198486,,
1770770132175,,,9.540000915527344,-1.8979500532150269
1770770132197,,2.3899500370025635,9.10200023651123,-1.7470500469207764
1770770132225,,2.0880000591278076,9.904050827026367,-1.908000111579895
1770770132240,,1.6789500713348389,,-2.1540000438690186
1770770132241,,,8.950950622558594,
1770770132257,1.3818054411525493,0.6829500198364258,,-2.2260000705718994
1770770132258,,,8.817000389099121,
1770770132295,,1.543950080871582,9.360000610351562,-1.5679501295089722
1770770132317,0.37582937554998397,,,
1770770132318,,1.4490001201629639,,-1.7209501266479492
1770770132319,,,9.769950866699219,
1770770132350,,0.9600000381469727,9.571050643920898,-1.6630500555038452
1770770132381,0.6357912668717344,1.6570501327514648,9.027000427246094,-1.0980000495910645
1770770132399,,1.590000033378601,9.403050422668457,-0.9520500302314758
1770770132424,,1.924950122833252,9.073050498962402,-1.0860000848770142
1770770132438,1.1107260844909859,,,
1770770132439,,2.1600000858306885,9.187950134277344,-0.9310500621795654
1770770132459,,2.347050189971924,,
1770770132460,,,10.171950340270996,-2.0340001583099365
1770770132518,,1.2619500160217285,,
1770770132519,,,9.99000072479248,-1.1149500608444214
1770770132520,2.1938862902264007,3.2989501953125,,-4.108050346374512
1770770132570,,0.19200000166893005,10.35105037689209,-0.6510000228881836
1770770132580,1.6893863730942178,-0.5689499974250793,9.520950317382812,-2.9419500827789307
1770770132606,,1.0320000648498535,,-2.6020500659942627
1770770132607,,,10.057050704956055,
1770770132623,,0.14595000445842743,,
1770770132624,,,9.384000778198242,-3.6529502868652344
1770770132641,3.8629351423261507,0.12495000660419464,,
1770770132642,,,7.153050422668457,-1.194000005722046
1770770132668,,0.26100000739097595,8.812050819396973,-2.3550000190734863
1770770132683,,1.4800500869750977,,-1.327950119972229
1770770132684,,,9.085050582885742,
1770770132701,2.5270354423377315,0.21300001442432404,10.22700023651123,-3.703050136566162
1770770132734,,2.6080501079559326,8.469000816345215,-1.434000015258789
1770770132785,0.20362494455867175,,,
1770770132787,,-0.29100000858306885,,-2.8410000801086426
1770770132788,,,8.572050094604492,
1770770132801,,-0.8899500370025635,,
1770770132802,,,7.9360504150390625,-3.4830002784729004
1770770132827,,1.1040000915527344,9.595050811767578,-2.6110501289367676
1770770132843,0.7788682872891296,,,
1770770132844,,0.20100000500679016,,-2.2980000972747803
1770770132845,,,9.106050491333008,
1770770132870,,0.8050500154495239,9.097050666809082,-4.009950160980225
1770770132900,,2.2510499954223633,8.668050765991211,-2.8150501251220703
1770770132906,1.7954948764261576,,,
1770770132907,,2.722050189971924,9.451050758361816,-2.6950502395629883
1770770132938,,0.9480000734329224,9.717000007629395,-3.2940001487731934
1770770132955,,0.22995001077651978,9.999000549316406,-2.142000198364258
1770770132964,1.8189212574244245,0.45000001788139343,,
1770770132965,,,4.909050464630127,1.908000111579895
1770770133007,,-0.44895002245903015,,
1770770133008,,,9.195000648498535,-2.908050060272217
1770770133025,,-0.21405000984668732,,
1770770133026,,,9.49905014038086,-4.060050010681152
1770770133047,1.3128896770570346,,,
1770770133048,,-0.013050000183284283,9.858000755310059,-3.0930001735687256
1770770133066,,-0.2070000171661377,9.003000259399414,-2.740950107574463
1770770133106,0.6954252601657881,,,
1770770133108,,-0.010950000956654549,,-2.1780002117156982
1770770133109,,,9.820050239562988,-2.0340001583099365
1770770133140,,1.2859500646591187,10.023000717163086,-2.227950096130371
1770770133167,0.9715132834409373,1.3050000667572021,,-2.8560001850128174
1770770133168,,,9.034950256347656,
1770770133212,,0.6390000581741333,,
1770770133213,,,10.22700023651123,-2.86995005607605
1770770133227,0.1176807078046493,,,
1770770133228,,1.128000020980835,9.517950057983398,-3.0349502563476562
1770770133275,,0.6970500349998474,,-2.4439501762390137
1770770133276,,,9.079950332641602,-2.5660500526428223
1770770133311,0.3391063516799575,,,
1770770133312,,-0.037050001323223114,,
1770770133313,,,9.247950553894043,-3.3390002250671387
1770770133340,,0.28005000948905945,9.22605037689209,-3.457050085067749
1770770133370,0.9851101143763545,,,
1770770133371,,-0.05895000323653221,,
1770770133376,,,9.949050903320312,-3.763050079345703
1770770133407,,-0.23805001378059387,,-3.280050039291382
1770770133408,,,8.872050285339355,
1770770133434,,0.2560500204563141,,-3.7129502296447754
1770770133435,0.48737800979174095,,9.753000259399414,
1770770133451,,-0.05400000140070915,9.516000747680664,-2.9250001907348633
1770770133475,,1.225950002670288,9.837000846862793,-3.415950059890747
1770770133490,1.973831763189614,,,
1770770133491,,1.5919500589370728,10.404000282287598,-1.7419500350952148
1770770133544,,1.9420500993728638,,
1770770133545,,,10.335000038146973,-1.828950047492981
1770770133560,,0.2950500249862671,9.631050109863281,-1.0699501037597656
1770770133574,1.106600556084131,-0.15000000596046448,10.162050247192383,-2.092050075531006
1770770133609,,-0.46800002455711365,,
1770770133610,,,8.66295051574707,-2.0149500370025635
1770770133617,,-0.3630000054836273,9.372000694274902,-2.808000087738037
1770770133633,0.9308300530749528,,,
1770770133634,,0.07200000435113907,9.037050247192383,-3.8400001525878906
1770770133670,,0.0,8.404950141906738,-3.778050184249878
1770770133677,,0.4650000333786011,8.773950576782227,-4.417050361633301
1770770133693,1.4962454537152894,,,
1770770133695,,0.6370500326156616,9.385950088500977,-4.501049995422363
1770770133726,,0.7450500130653381,8.629950523376465,-4.750050067901611
1770770133745,,0.5100000500679016,9.039000511169434,-4.471950054168701
1770770133763,1.2967496144912114,,,
1770770133764,,0.3859500288963318,9.244950294494629,-4.591950416564941
1770770133781,,0.3739500045776367,8.95995044708252,-4.156050205230713
1770770133812,,0.6300000548362732,9.493950843811035,-3.745950222015381
1770770133828,,0.41895002126693726,,
1770770133829,,,8.553000450134277,-3.7990500926971436
1770770133835,1.1135625651117012,-0.7080000042915344,8.476950645446777,-3.198000192642212
1770770133881,,0.08595000207424164,10.414050102233887,-3.078000068664551
1770770133896,0.8422377420984457,,,
1770770133897,,0.12000000476837158,9.22095012664795,-3.2530500888824463
1770770133955,,-0.28905001282691956,9.94005012512207,-3.2220001220703125
1770770133957,0.6239345529022972,-0.10200000554323196,8.314050674438477,-3.078000068664551
1770770133999,,-0.3169500231742859,9.169050216674805,-3.7080001831054688
1770770134019,0.8297760178066249,-0.8149500489234924,9.181050300598145,-4.052999973297119
1770770134059,,-1.6699501276016235,8.37405014038086,-4.44795036315918
1770770134087,,-1.3729500770568848,,-4.776000022888184
1770770134088,,,8.745000839233398,-4.006950378417969
1770770134099,0.9597017980396741,,,
1770770134100,,-1.2769500017166138,7.381950378417969,-4.840950012207031
1770770134148,,-1.651050090789795,10.110000610351562,-4.185000419616699
1770770134159,1.523444307752217,-1.5240000486373901,10.366050720214844,-4.2370500564575195
1770770134216,,-1.1860500574111938,7.780050277709961,-4.315950393676758
1770770134217,,,7.857000350952148,
1770770134223,0.22909796924163492,-1.4020500183105469,9.922950744628906,-3.7540502548217773
1770770134275,,-1.371000051498413,9.26400089263916,-2.9539501667022705
1770770134281,1.8516584282985649,,,
1770770134282,,-1.5619500875473022,,
1770770134283,,,8.967000007629395,-2.5320000648498535
1770770134330,,-1.88100004196167,,
1770770134331,,,10.459050178527832,-2.0680501461029053
1770770134350,,-0.753000020980835,,-2.0659501552581787
1770770134351,,,9.268950462341309,
1770770134366,1.0454648327415554,-1.8090001344680786,,
1770770134367,,,10.141050338745117,-2.5230000019073486
1770770134384,,-2.179949998855591,,-3.7609500885009766
1770770134385,,,10.236000061035156,
1770770134418,,-0.9420000314712524,9.070050239562988,-2.986950159072876
1770770134422,0.8784524721045599,-0.46605002880096436,,
1770770134423,,,8.617950439453125,-3.069000244140625
1770770134484,1.3824008824720921,-1.015950083732605,,-3.8209502696990967
1770770134485,,,9.247950553894043,-3.835050106048584
1770770134544,0.6034547843018376,,,
1770770134545,,-0.7770000100135803,9.394050598144531,-4.03095006942749
1770770134605,,-0.7099500298500061,10.35105037689209,-4.282950401306152
1770770134625,3.200002944468097,,,
1770770134626,,-0.15195000171661377,12.157050132751465,-2.7619500160217285
1770770134660,,1.207050085067749,,-2.5609500408172607
1770770134661,,,9.037050247192383,
1770770134686,2.1526095854436194,,,
1770770134687,,1.5010501146316528,,-1.738050103187561
1770770134688,,,10.531050682067871,-1.29705011844635
1770770134716,,-0.778950035572052,9.384000778198242,-1.5940500497817993
1770770134749,1.929806724911569,-1.045050024986267,,
1770770134750,,,9.006000518798828,-2.0749499797821045
1770770134769,,0.024000000208616257,,
1770770134770,,,8.140950202941895,-3.438000202178955
1770770134808,1.446699065022909,,,
1770770134809,,0.18900001049041748,,-3.1020002365112305
1770770134810,,,8.556000709533691,
1770770134832,,0.3550500273704529,9.718950271606445,-4.776000022888184
1770770134881,,0.7740000486373901,8.503050804138184,-4.9960503578186035
1770770134889,1.8450820119974896,0.984000027179718,,
1770770134890,,,9.019950866699219,-5.110950469970703
1770770134934,,0.817050039768219,,-5.353050231933594
1770770134935,,,7.212000370025635,-4.261050224304199
1770770134950,1.410044192778178,-0.0799500048160553,,-5.293050289154053
1770770134951,,,9.21405029296875,
1770770134992,,0.031050002202391624,,
1770770134993,,,8.71095085144043,-5.322000026702881
1770770135019,0.7421516811360804,-0.016050001606345177,7.938000202178955,-4.783050060272217
1770770135032,,0.6130500435829163,8.308950424194336,-5.317050457000732
1770770135071,0.4851857905831347,,,
1770770135072,,0.13395000994205475,,
1770770135073,,,8.756999969482422,-4.891050338745117
1770770135092,,-1.2460500001907349,8.480999946594238,-3.427950143814087
1770770135157,2.367838351473706,,,
1770770135158,,-2.3620500564575195,8.023950576782227,-2.5849502086639404
1770770135216,0.4969191105774123,-2.070000171661377,10.38705062866211,-1.852950096130371
1770770135232,,0.6390000581741333,,
1770770135233,,,10.83495044708252,-3.8449501991271973
1770770135265,,0.9790500402450562,11.331000328063965,-4.07895040512085
1770770135274,1.0766126557336393,,,
1770770135275,,-1.300950050354004,9.778950691223145,-4.204050064086914
1770770135295,,-4.123950004577637,8.079000473022461,-3.4729502201080322
1770770135320,,-3.9690001010894775,7.159950256347656,-3.315000057220459
1770770135336,0.6820475066214997,,,
1770770135337,,-2.199000120162964,10.485000610351562,-4.185000419616699
1770770135360,,-0.8149500489234924,8.794950485229492,-3.265050172805786
1770770135380,,-0.3940500319004059,7.629000186920166,-2.7139501571655273
1770770135415,1.620597892207922,,,
1770770135416,,-0.6499500274658203,,
1770770135417,,-0.7459500432014465,,-2.6620500087738037
1770770135418,,,9.336000442504883,
1770770135481,1.401756950166609,,,
1770770135483,,-0.08700000494718552,,
1770770135484,,,9.307050704956055,-2.329050064086914
1770770135498,,-2.386050224304199,,
1770770135499,,,7.945050239562988,-3.1410000324249268
1770770135537,0.7144373588011242,,,
1770770135538,,-2.388000011444092,,
1770770135539,,,8.982000350952148,-3.0109500885009766
1770770135562,,-1.0879501104354858,,-3.982950210571289
1770770135563,,,9.42495059967041,
1770770135595,,-0.6360000371932983,9.43695068359375,-3.733950138092041
1770770135598,1.6015900400166447,-0.8370000123977661,9.999000549316406,-3.4810502529144287
1770770135630,,-1.158000111579895,8.71095085144043,-3.223950147628784
1770770135649,,-2.1349501609802246,,
1770770135650,,,9.235950469970703,-3.507000207901001
1770770135679,2.118154720076504,,,
1770770135680,,-3.4009501934051514,7.477950572967529,-2.9610002040863037
1770770135705,,-3.8680500984191895,8.023950576782227,-4.495950222015381
1770770135740,0.9273493881504111,,,
1770770135741,,-3.223950147628784,,
1770770135742,,,8.232000350952148,-4.723050117492676
1770770135760,,-1.3680000305175781,8.173049926757812,-4.624950408935547
1770770135799,2.649037341040801,,,
1770770135800,,-0.6000000238418579,9.754950523376465,-3.8680500984191895
1770770135831,,0.9529500603675842,,
1770770135832,,,8.782950401306152,-3.9280502796173096
1770770135863,1.7317963409457422,1.603950023651123,,
1770770135864,,,8.53695011138916,-1.527000069618225
1770770135900,,-0.7080000042915344,,-1.711050033569336
1770770135901,,,8.734950065612793,
1770770135930,,-2.580000162124634,8.668050765991211,-1.738050103187561
1770770135948,3.2203146085403698,,,
1770770135949,,-4.978950023651123,8.07705020904541,0.0499500036239624
1770770135966,,-3.5779502391815186,8.544000625610352,-1.0219500064849854
1770770136004,1.7942966704776029,,,
1770770136005,,-3.6000001430511475,10.620000839233398,-1.4839500188827515
1770770136034,,0.5700000524520874,,
1770770136035,,,9.379050254821777,-4.7059502601623535
1770770136064,2.872659476877267,2.104950189590454,,
1770770136065,,,9.331050872802734,-4.70205020904541
1770770136090,,-2.4790501594543457,,
1770770136091,,,7.5859503746032715,-4.990950107574463
1770770136126,1.3985316495263407,,,
1770770136127,,-0.9829500317573547,7.701000213623047,-3.3010501861572266
1770770136145,,-1.8229501247406006,10.159950256347656,-2.700000047683716
1770770136168,,-1.300950050354004,9.754950523376465,-0.598050057888031
1770770136199,,-0.25005000829696655,9.292950630187988,-1.735050082206726
1770770136209,2.224528029028813,-0.6840000152587891,10.906950950622559,-2.0029501914978027
1770770136234,,0.0499500036239624,9.528000831604004,-3.2940001487731934
1770770136254,,-0.4729500114917755,,
1770770136255,,,8.449950218200684,-3.703050136566162
1770770136265,1.769939047200339,-0.8340000510215759,8.236949920654297,-4.6080002784729
1770770136301,,-0.89205002784729,9.067950248718262,-4.386000156402588
1770770136315,,-1.1119500398635864,8.605950355529785,-4.3470001220703125
1770770136330,1.2726942830640517,-1.371000051498413,8.635050773620605,-5.020050048828125
1770770136366,,-1.8760501146316528,,-4.81695032119751
1770770136367,,,9.69795036315918,
1770770136371,,-2.1919500827789307,,-3.9310503005981445
1770770136372,,,9.757950782775879,
1770770136386,3.20186549289356,,,
1770770136387,,-1.7040001153945923,9.580050468444824,-4.3090500831604
1770770136419,,0.7900500297546387,10.444950103759766,-3.95205020904541
1770770136435,,2.6460001468658447,,
1770770136436,,,9.463050842285156,-2.889000177383423
1770770136469,2.7178000182573223,,,
1770770136470,,2.0190000534057617,9.196950912475586,-2.788950204849243
1770770136505,,-1.1050500869750977,8.908050537109375,-3.057000160217285
1770770136529,1.2905437859574973,,,
1770770136532,,-1.8400501012802124,,-3.385050058364868
1770770136533,,,10.095000267028809,
1770770136570,,-1.01895010471344,,-3.555000066757202
1770770136571,,,7.729950428009033,-2.7019500732421875
1770770136589,2.5002090366708902,,,
1770770136590,,-1.4470500946044922,11.031000137329102,-3.1120500564575195
1770770136636,,-1.1839500665664673,8.320950508117676,-2.880000114440918
1770770136650,1.249372801785923,-1.3609501123428345,9.95895004272461,-2.997000217437744
1770770136696,,-1.9309500455856323,,-2.9040000438690186
1770770136697,,,8.464950561523438,
1770770136732,0.9905796991333322,,,
1770770136733,,-2.68500018119812,9.540000915527344,-2.6020500659942627
1770770136771,,-2.202000141143799,,
1770770136772,,1.1779500246047974,9.352950096130371,-2.209050178527832
1770770136796,2.531659316888738,-4.876049995422363,,-5.45805025100708
1770770136797,,,8.302050590515137,
1770770136837,,-5.2260003089904785,9.619050025939941,-0.24795001745224
1770770136838,,,7.8760504722595215,
1770770136853,1.2536364113496274,-3.1500000953674316,9.466050148010254,-3.1240501403808594
1770770136908,,-0.7099500298500061,9.46095085144043,-3.5380501747131348
1770770136909,,,6.4009504318237305,
1770770136914,3.779401090698117,-3.235950231552124,8.460000038146973,-3.6190502643585205
1770770136969,,-2.3310000896453857,,
1770770136970,,-1.519050121307373,9.115950584411621,-3.2440502643585205
1770770136973,,-1.2610501050949097,11.131950378417969,-4.548000335693359
1770770136995,2.152175813690003,,,
1770770136996,,-1.0380001068115234,7.924050331115723,-4.072050094604492
1770770137025,,-1.8900001049041748,,
1770770137026,,,8.158050537109375,-3.5380501747131348
1770770137037,,-2.1060001850128174,9.583050727844238,-4.849950313568115
1770770137056,1.3160527600840435,-2.0460000038146973,,
1770770137057,,,7.564050197601318,-3.7800002098083496
1770770137079,,-1.9429501295089722,,
1770770137081,,,11.098050117492676,-3.4729502201080322
1770770137121,0.9906389361824245,-1.3990501165390015,9.25200080871582,-3.5689501762390137
1770770137135,,-1.13100004196167,9.700050354003906,-3.567000150680542
1770770137180,,-1.0399500131607056,,-4.254000186920166
1770770137181,,,8.331000328063965,
1770770137238,,-1.0279500484466553,8.35004997253418,-4.132050037384033
1770770137258,0.45211315635311405,,,
1770770137259,,-1.6800000667572021,8.0910005569458,-4.005000114440918
1770770137301,,-1.3540500402450562,,
1770770137302,,-0.22605000436306,9.469950675964355,-5.029950141906738
1770770137322,1.0445416195339752,,,
1770770137323,,-0.4540500342845917,8.36400032043457,-4.4599504470825195
1770770137356,,0.1290000081062317,,-3.658050060272217
1770770137357,,,9.826950073242188,
1770770137387,,-1.1220000982284546,,
1770770137388,2.145443359295877,-0.5809500217437744,10.56705093383789,-4.252050399780273
1770770137410,,-0.3630000054836273,10.519050598144531,-3.8230502605438232
1770770137439,,-0.527999997138977,,
1770770137444,,,,-3.0259501934051514
1770770137445,2.243946408996925,-1.4140501022338867,8.563050270080566,-3.1960501670837402
1770770137465,,-1.0210500955581665,12.286050796508789,-2.0440499782562256
1770770137510,,-0.6190500259399414,,
1770770137511,,0.19905000925064087,8.656050682067871,-3.43500018119812
1770770137521,1.2687620679159273,0.4240500330924988,,
1770770137522,,,8.608050346374512,-4.896000385284424
1770770137578,,0.8910000324249268,7.921050548553467,-4.276050090789795
1770770137589,2.96385705182575,,,
1770770137590,,-1.4689500331878662,11.66295051574707,-2.7120001316070557
1770770137631,,-0.5730000138282776,7.948050498962402,-3.2560501098632812
1770770137643,2.1559967776895483,,,
1770770137644,,-2.6610000133514404,7.432950496673584,-4.441050052642822
1770770137684,,-1.0740000009536743,,
1770770137685,,-0.5329500436782837,9.300000190734863,-1.527000069618225
1770770137704,1.8399878443440827,-1.9960501194000244,8.35200023651123,-3.0859501361846924
1770770137742,,-3.406050205230713,9.415050506591797,-2.0680501461029053
1770770137777,,-3.078000068664551,,
1770770137778,,-2.4000000953674316,11.176950454711914,-2.8440001010894775
1770770137785,0.9265438431764006,,,
1770770137786,,-1.6150500774383545,12.066000938415527,-2.9040000438690186
1770770137845,,-1.5120000839233398,8.315999984741211,-4.371000289916992
1770770137847,1.8040803490738173,-1.8109500408172607,10.737000465393066,-2.8750500679016113
1770770137909,1.430065417760781,-1.1860500574111938,10.098000526428223,-4.5199503898620605
1770770137961,,-2.107950210571289,,
1770770137962,,-1.9720500707626343,,-1.2109500169754028
1770770137963,,,10.999950408935547,-2.8249502182006836
1770770137972,1.2729315659587026,,,
1770770137973,,-2.508000135421753,9.481950759887695,-1.7850000858306885
1770770138016,,-1.765950083732605,,-2.3839499950408936
1770770138017,,,9.504000663757324,
1770770138041,,-2.7090001106262207,9.384000778198242,-2.5039501190185547
1770770138048,0.7457396780559976,,,
1770770138049,,-2.9890501499176025,10.82295036315918,-3.069000244140625
1770770138068,,-2.158050060272217,,-4.966950416564941
1770770138069,,,6.250050067901611,
1770770138113,1.6772996119327332,-1.4980500936508179,,
1770770138114,,,7.813050270080566,-3.7680001258850098
1770770138171,2.7932872243852436,,,
1770770138172,,-1.858950138092041,,
1770770138173,,,7.897050380706787,-2.5950000286102295
1770770138231,1.2359291626158324,,,
1770770138232,,-3.3409502506256104,11.079000473022461,-1.2079501152038574
1770770138250,,-1.7869501113891602,,
1770770138251,,,12.091950416564941,-2.571000099182129
1770770138290,,-0.778950035572052,,-2.470050096511841
1770770138291,,,7.1170501708984375,
1770770138312,3.5439372395023785,-2.9509501457214355,,-5.551950454711914
1770770138313,,,7.44705057144165,
1770770138347,,-1.443000078201294,10.156950950622559,-2.5639500617980957
1770770138372,2.167595468638376,,,
1770770138373,,0.04605000093579292,8.944050788879395,-3.9499502182006836
1770770138401,,-2.218050003051758,7.4569501876831055,-3.9090001583099365
1770770138433,0.9603975221018063,-2.9170501232147217,,-3.0300002098083496
1770770138434,,,10.734000205993652,
1770770138452,,-1.5690001249313354,9.53700065612793,-2.884050130844116
1770770138494,1.0810520961216965,,,
1770770138495,,-1.495050072669983,9.930000305175781,-3.306000232696533
1770770138520,,-0.6840000152587891,9.25005054473877,-3.607950210571289
1770770138571,,-0.4129500091075897,,
1770770138572,,-0.7219500541687012,9.094050407409668,-2.1090002059936523
1770770138573,,,9.334050178527832,
1770770138575,,-1.0909500122070312,,-4.558050155639648
1770770138576,1.327044058337844,,10.869000434875488,
1770770138620,,-0.15000000596046448,,
1770770138621,,,7.939950466156006,-4.9270501136779785
1770770138637,1.1841869315646705,,,
1770770138638,,-0.46605002880096436,9.109050750732422,-4.563000202178955
1770770138676,,-0.7600500583648682,,
1770770138677,,-1.5100500583648682,8.022000312805176,-5.173050403594971
1770770138696,1.1431897735181011,,,
1770770138697,,-1.7040001153945923,9.160950660705566,-3.3229501247406006
1770770138722,,-0.9109500646591187,8.248950004577637,-3.1330502033233643
1770770138757,1.3760288464134043,-0.9589500427246094,11.766000747680664,-2.77905011177063
1770770138785,,-1.443000078201294,,
1770770138786,,,11.596050262451172,-2.058000087738037
1770770138839,0.651775272308137,,,
1770770138840,,-0.9109500646591187,,-2.302950143814087
1770770138841,,,7.543050289154053,-2.5060501098632812
1770770138895,,-1.0309500694274902,8.14905071258545,-4.70205020904541
1770770138907,0.5185379054340659,-0.4990500211715698,,-3.4999501705169678
1770770138908,,,9.304950714111328,
1770770138931,,-0.47805002331733704,9.142050743103027,-2.4150002002716064
1770770138949,,-1.6579500436782837,,-2.997000217437744
1770770138950,,,9.858000755310059,
1770770138961,1.8944644876888392,0.8329500555992126,9.195000648498535,-4.966950416564941
1770770138991,,-0.5059500336647034,,-4.258950233459473
1770770138992,,,7.038000106811523,
1770770139005,,-0.18300001323223114,9.343050003051758,-2.053950071334839
1770770139021,1.1876848980359669,,,
1770770139022,,-1.4880000352859497,10.476000785827637,-3.061950206756592
1770770139044,,-0.595050036907196,10.452000617980957,-2.5639500617980957
1770770139059,,0.31905001401901245,8.461950302124023,-2.860950231552124
1770770139102,1.5237914627855431,,,
1770770139103,,-0.07800000160932541,9.292950630187988,-2.3430001735687256
1770770139125,,-1.1430000066757202,,-3.0930001735687256
1770770139126,,,9.588000297546387,
1770770139166,0.9916506839447287,,,
1770770139167,,-0.9780000448226929,9.576000213623047,-3.4519500732421875
1770770139201,,-0.5140500068664551,,
1770770139202,,,7.858950138092041,-3.8449501991271973
1770770139232,1.0057667513672455,-1.1149500608444214,,
1770770139233,,,8.27595043182373,-3.81600022315979
1770770139247,,-0.8899500370025635,,-4.077000141143799
1770770139248,,,9.375,
1770770139279,,-0.8179500102996826,,
1770770139280,,,10.881000518798828,-3.7579500675201416
1770770139283,1.0630320731426537,,,
1770770139284,,-0.4420500099658966,8.818950653076172,-3.835050106048584
1770770139329,,-0.47805002331733704,,
1770770139330,,-1.0330500602722168,9.003000259399414,-2.7739500999450684
1770770139365,2.680572808385306,-1.2439500093460083,10.713000297546387,-2.401050090789795
1770770139391,,-1.612950086593628,,
1770770139392,,,8.395050048828125,-2.4460501670837402
1770770139425,1.879138955914971,,,
1770770139426,,-2.2930500507354736,7.966950416564941,-2.7360000610351562
1770770139444,,-1.7059500217437744,9.943950653076172,-3.129000186920166
1770770139490,1.2320220347019322,,,
1770770139491,,-0.9900000691413879,9.007950782775879,-3.3030002117156982
1770770139530,,-1.3420500755310059,,-3.484950065612793
1770770139531,,,8.37405014038086,-3.05400013923645
1770770139546,0.8183952815297381,,,
1770770139547,,-0.33195000886917114,7.768050193786621,-2.8510501384735107
1770770139601,,-0.9300000667572021,,
1770770139602,,,9.496950149536133,-2.728950023651123
1770770139612,,-1.2799500226974487,8.256000518798828,-3.985950231552124
1770770139630,0.9234323117389579,,,
1770770139631,,-1.0500000715255737,11.790000915527344,-2.370000123977661
1770770139668,,-0.2530499994754791,,
1770770139669,,,2.682000160217285,-4.141050338745117
1770770139689,1.4063144245225239,,,
1770770139690,,-2.326050043106079,9.745950698852539,-1.9320000410079956
1770770139723,,-2.68500018119812,12.415050506591797,-2.073000192642212
1770770139739,,-1.3180500268936157,9.031949996948242,-3.715050220489502
1770770139755,0.7930058813562486,-0.8509500622749329,10.141050338745117,-3.4830002784729004
1770770139780,,-0.7309500575065613,,
1770770139781,,,8.830950736999512,-2.839050054550171
1770770139797,,-1.5649501085281372,,-3.1930501461029053
1770770139798,,,10.336950302124023,
1770770139811,1.3749279957037954,,,
1770770139812,,-1.5430500507354736,10.35105037689209,-3.220050096511841
1770770139831,,-1.0830000638961792,,
1770770139832,,,8.515049934387207,-3.406050205230713
1770770139864,,-0.8340000510215759,10.51200008392334,-3.828000068664551
1770770139885,,-0.16395001113414764,7.591050148010254,-3.544950246810913
1770770139894,1.7325732520885053,,10.596000671386719,
1770770139895,,-0.7630500197410583,,-2.7310500144958496
1770770139931,,-0.20205001533031464,8.802000045776367,-2.8720500469207764
1770770139955,0.9450382433827711,,,
1770770139956,,0.6270000338554382,9.303000450134277,-2.7769501209259033
1770770139994,,0.39795002341270447,,-2.3460001945495605
1770770139995,,,7.981050491333008,
1770770140012,2.4988436885824337,,,
1770770140013,,-1.210050106048584,11.179950714111328,-3.8610002994537354
1770770140047,,-1.0690500736236572,,
1770770140048,,,9.70995044708252,-4.417050361633301
1770770140065,,-0.8820000290870667,8.34000015258789,-2.998950242996216
1770770140073,1.1551903173190121,-1.864050030708313,,
1770770140074,,,9.370050430297852,-2.5350000858306885
1770770140107,,-1.6489500999450684,10.306050300598145,-4.429050445556641
1770770140132,,-2.218050003051758,,-3.8899502754211426
1770770140133,,,8.944050788879395,
1770770140155,2.071802833646664,,,
1770770140156,,-1.8859500885009766,7.14300012588501,-2.9730000495910645
1770770140200,,-1.5289500951766968,,
1770770140201,,-1.9210500717163086,8.794950485229492,-2.7930002212524414
1770770140215,0.6363168161603842,-0.23100000619888306,,
1770770140216,,,9.027000427246094,-3.109950065612793
1770770140251,,0.012000000104308128,10.983000755310059,-1.5169501304626465
1770770140267,,-0.8179500102996826,9.013050079345703,-2.9040000438690186
1770770140281,1.5979872829279762,,,
1770770140282,,-1.7970000505447388,10.086000442504883,-2.0269501209259033
1770770140325,,-1.76295006275177,,
1770770140326,,-2.01705002784729,7.033050537109375,-3.1909501552581787
1770770140339,1.9219447797807536,-0.5350500345230103,4.162050247192383,-5.371950149536133
1770770140380,,-0.17595000565052032,,
1770770140381,,-1.5600000619888306,9.109050750732422,-2.7619500160217285
1770770140382,,,7.300950527191162,
1770770140401,,-1.8469500541687012,10.021050453186035,-2.896050214767456
1770770140418,5.686467003546391,,,
1770770140419,,-2.038950204849243,12.849000930786133,-4.017000198364258
1770770140448,,-0.25005000829696655,5.422050476074219,-3.1309502124786377
1770770140469,,-1.4590500593185425,10.462050437927246,-2.638050079345703
1770770140482,1.2437238489210045,-2.0050501823425293,9.26205062866211,-3.327000141143799
1770770140537,,-1.6009501218795776,9.003000259399414,-3.5430002212524414
1770770140539,0.7137140404616712,-0.6550500392913818,,
1770770140540,,,8.220000267028809,-2.3050501346588135
1770770140599,1.0154793268049995,,,
1770770140600,,-1.3639500141143799,,-3.6790502071380615
1770770140601,,,11.022000312805176,-2.0560500621795654
1770770140649,,-0.6840000152587891,,
1770770140650,,-0.17400000989437103,10.52595043182373,-2.5060501098632812
1770770140651,,,8.776050567626953,
1770770140674,,-0.8989500403404236,,
1770770140675,,,11.211000442504883,-3.2149500846862793
1770770140681,1.0814153247193994,-1.0279500484466553,9.907950401306152,-2.3650500774383545
1770770140709,,-1.102950096130371,,
1770770140710,,,9.418050765991211,-3.6409502029418945
1770770140738,,-0.6310500502586365,,-3.295950174331665
1770770140740,,,9.073050498962402,
1770770140741,1.0897933237312003,,,
1770770140742,,-0.42000001668930054,8.223000526428223,-2.986950159072876
1770770140771,,-0.6240000128746033,8.96505069732666,-3.8490002155303955
1770770140804,1.4582059077949856,-1.0950000286102295,7.521000385284424,-3.808950185775757
1770770140850,,0.2639999985694885,,
1770770140851,,-0.8340000510215759,10.063950538635254,-2.092050075531006
1770770140869,1.0097506317265144,-1.9140000343322754,10.620000839233398,-2.571000099182129
1770770140931,,-0.14205001294612885,,-3.20805025100708
1770770140932,,,6.918000221252441,-1.7160000801086426
1770770140947,2.5109902092102057,-2.0749499797821045,9.894000053405762,-3.438000202178955
1770770140988,,-1.1530500650405884,,
1770770140989,,-0.43695002794265747,9.850950241088867,-2.8339500427246094
1770770141007,1.676292572618731,,,
1770770141008,,-0.35805001854896545,7.404000282287598,-3.985950231552124
1770770141043,,-1.1359500885009766,8.254050254821777,-2.1349501609802246
1770770141060,,-0.42705002427101135,7.70805025100708,-3.2629501819610596
1770770141074,4.4515926468518945,-0.23805001378059387,9.592050552368164,-2.0680501461029053
1770770141095,,-1.1500500440597534,10.159950256347656,-4.110000133514404
1770770141132,0.8502368933484309,-0.4729500114917755,8.146050453186035,-2.130000114440918
1770770141149,,-1.612950086593628,,
1770770141207,,-1.9170000553131104,,
1770770141208,1.5673001371546316,,7.878000259399414,-3.579000234603882
1770770141252,,-1.7010000944137573,,
1770770141253,,,9.837000846862793,-4.006950378417969
1770770141270,1.1478385661027002,-1.4020500183105469,10.135950088500977,-2.620950222015381
1770770141315,,-0.7579500079154968,7.9860005378723145,-3.5329501628875732
1770770141339,0.36065968725161185,-1.3350000381469727,11.625000953674316,-3.0930001735687256
1770770141369,,-0.6210000514984131,,
1770770141370,,-0.7200000286102295,10.306050300598145,-2.458050012588501
1770770141390,0.6130679300172561,-1.1700000762939453,8.902950286865234,-3.2509500980377197
1770770141411,,-1.1700000762939453,,
1770770141412,,,9.718950271606445,-3.2599501609802246
1770770141454,,-0.8509500622749329,8.623050689697266,-4.050000190734863
1770770141455,,,8.896050453186035,
1770770141471,1.3022448579419754,,,
1770770141472,,-1.01895010471344,8.266050338745117,-4.869000434875488
1770770141531,0.937016330566507,,,
1770770141532,,-0.7429500222206116,,-3.28695011138916
1770770141533,,,8.515049934387207,-2.556000232696533
1770770141590,,-1.651050090789795,,
1770770141591,,-1.2919501066207886,8.991000175476074,-3.0900001525878906
1770770141594,,-1.6459500789642334,,-1.8139500617980957
1770770141595,3.262453720524546,,13.28700065612793,
1770770141622,,-1.0879501104354858,,
1770770141623,,,8.006999969482422,-2.820000171661377
1770770141647,,-1.4280000925064087,10.27500057220459,-2.6110501289367676
1770770141652,1.3378356031255467,,,
1770770141653,,-1.540950059890747,11.362051010131836,-2.287950038909912
1770770141679,,-2.1820499897003174,,-4.084050178527832
1770770141680,,,10.869000434875488,
1770770141700,,-0.9490500688552856,8.256000518798828,-3.933000087738037
1770770141737,2.244053293625476,-2.0239500999450684,10.543050765991211,-2.5639500617980957
1770770141738,,,6.640050411224365,
1770770141754,,-1.8400501012802124,9.183000564575195,-3.205050230026245
1770770141796,0.9421071968841112,,,
1770770141798,,-1.075950026512146,,-4.048050403594971
1770770141799,,,9.20205020904541,-2.968050241470337
1770770141827,,-0.9490500688552856,,
1770770141828,,,10.36305046081543,-2.7529501914978027
1770770141861,,-0.9540000557899475,9.010950088500977,-3.2119500637054443
1770770141862,0.6667221215151463,,9.358050346374512,
1770770141881,,-0.9660000205039978,9.075000762939453,-3.5520002841949463
1770770141917,1.126331283396624,,,
1770770141918,,-1.227000117301941,10.063950538635254,-1.3540500402450562
1770770141949,,-2.7280502319335938,,
1770770141950,,,13.105051040649414,-2.3460001945495605
1770770141977,,-0.39195001125335693,7.210050106048584,-5.020050048828125
1770770141978,,,9.166050910949707,
1770770141997,1.8577224696797494,-0.12300000339746475,8.6850004196167,-3.81600022315979
1770770142031,,0.40995001792907715,8.332950592041016,-3.715050220489502
1770770142057,,-0.6430500149726868,10.50195026397705,-2.311950206756592
1770770142059,,0.24900001287460327,,-3.7270500659942627
1770770142060,1.704441716476428,,8.176950454711914,
1770770142098,,-0.6760500073432922,9.385950088500977,-2.3389501571655273
1770770142119,1.5818845327656035,,,
1770770142120,,0.11505000293254852,7.749000549316406,-3.1050002574920654
1770770142140,,-0.7960500121116638,8.656050682067871,-3.5719501972198486
1770770142180,2.2554720987916776,-0.5640000104904175,,-3.6480002403259277
1770770142181,,,9.421950340270996,
1770770142217,,-1.0429500341415405,,
1770770142218,,,8.551050186157227,-3.2479500770568848
1770770142251,,-0.6910500526428223,,
1770770142252,,,7.869000434875488,-3.100050210952759
1770770142260,1.338381578344651,-1.7230501174926758,,
1770770142261,,,9.861000061035156,-2.9509501457214355
1770770142284,,-2.1850500106811523,11.500950813293457,-2.5129501819610596
1770770142305,,-1.4280000925064087,10.651050567626953,-3.4729502201080322
1770770142322,0.4151320947835118,,,
1770770142323,,-1.8690000772476196,9.065999984741211,-3.733950138092041
1770770142352,,-1.5019500255584717,,-2.9200501441955566
1770770142353,,,8.050050735473633,
1770770142396,0.5769041935569099,-2.8980002403259277,9.1399507522583,-2.5230000019073486
1770770142415,,-2.287950038909912,10.54995059967041,-2.4180002212524414
1770770142445,0.5341319284237462,-0.89205002784729,,
1770770142446,,-1.3680000305175781,9.085050582885742,-2.688000202178955
1770770142471,,-1.1269500255584717,9.70305061340332,-3.007050037384033
1770770142488,,-1.5769500732421875,,
1770770142489,,,11.521950721740723,-3.853950262069702
1770770142528,0.5129498531080683,,,
1770770142529,,-0.9610500335693359,,-3.9810001850128174
1770770142530,,,6.585000514984131,-3.627000093460083
1770770142555,,-1.456950068473816,8.480999946594238,-3.7699501514434814
1770770142581,,-1.818000078201294,9.922950744628906,-2.9320502281188965
1770770142591,0.6340363054049055,-1.990950107574463,,
1770770142592,,,9.094050407409668,-3.8970000743865967
1770770142621,,-2.107950210571289,9.115950584411621,-3.475950241088867
1770770142640,,-0.8629500269889832,7.450050354003906,-3.847050189971924
1770770142645,1.1157250068355984,,,
1770770142647,,-1.5600000619888306,,-2.5320000648498535
1770770142648,,,9.991950035095215,
1770770142689,,-0.8250000476837158,9.063000679016113,-3.4210500717163086
1770770142710,1.9787732452742985,-0.6000000238418579,9.516000747680664,-3.52905011177063
1770770142744,,-0.17595000565052032,,
1770770142745,,,11.98905086517334,-3.4590001106262207
1770770142756,,0.5130000114440918,,-3.7320001125335693
1770770142757,,,6.916050434112549,
1770770142787,1.180216386480821,,,
1770770142788,,-0.8059500455856323,,
1770770142789,,,8.058000564575195,-3.496950149536133
1770770142823,,-2.2759501934051514,,
1770770142824,,,11.053050994873047,-3.454050064086914
1770770142848,2.1424537142691427,-0.10905000567436218,,-3.547950267791748
1770770142849,,,8.745000839233398,
1770770142895,,-1.1910001039505005,,
1770770142896,,,9.535050392150879,-2.3239500522613525
1770770142912,1.86300170848807,-1.4110500812530518,9.49905014038086,-2.63100004196167
1770770142959,,-1.1239500045776367,8.37600040435791,-3.507000207901001
1770770142969,2.1007734327642535,-3.106950044631958,,
1770770142970,,,10.900050163269043,-2.451000213623047
1770770143020,,-3.3199501037597656,8.35004997253418,-2.1450002193450928
1770770143050,0.24622929337139976,-4.014000415802002,8.07194995880127,-3.246000051498413
1770770143074,,-1.5840001106262207,,-2.77905011177063
1770770143075,,,8.461950302124023,
1770770143091,,-2.794950246810913,9.612000465393066,-2.9250001907348633
1770770143112,2.7059928366600796,-2.5249500274658203,11.544000625610352,-1.9170000553131104
1770770143130,,-2.1060001850128174,,
1770770143131,,,9.103950500488281,-2.947050094604492
1770770143160,,-1.1290500164031982,9.664050102233887,-3.5209500789642334
1770770143173,1.1533688398547908,-0.7480500340461731,7.095000267028809,-3.7200002670288086
1770770143227,,-1.6219500303268433,,
1770770143228,,-0.5179499983787537,10.093050003051758,-3.888000249862671
1770770143237,2.547475919450597,-0.8029500246047974,8.781000137329102,-2.9610002040863037
1770770143259,,-0.6139500141143799,8.656050682067871,-2.8750500679016113
1770770143295,,-1.078950047492981,8.40000057220459,-3.177000045776367
1770770143316,0.8207217331038178,,,
1770770143317,,-0.6409500241279602,6.573000431060791,-5.085000038146973
1770770143350,,-1.0980000495910645,10.23900032043457,-2.647050142288208
1770770143361,,-1.0039499998092651,8.37405014038086,-3.913950204849243
1770770143380,1.0770109751220955,-0.8629500269889832,8.782950401306152,-2.5470001697540283
1770770143414,,-0.5809500217437744,8.338050842285156,-3.0349502563476562
1770770143431,,-1.1530500650405884,10.485000610351562,-2.6110501289367676
1770770143446,1.0199835932103987,-0.8010000586509705,8.659049987792969,-4.138950347900391
1770770143462,,-0.7960500121116638,8.94105052947998,-3.2479500770568848
1770770143495,,-1.5690001249313354,,-3.1930501461029053
1770770143496,,,10.021050453186035,
1770770143497,1.3214473474486839,-1.2679500579833984,,
1770770143524,,-1.7680500745773315,,-2.7580502033233643
1770770143525,,,10.003950119018555,
1770770143561,,-1.974000096321106,,
1770770143562,,,9.367050170898438,-2.7580502033233643
1770770143576,1.5452902025671897,-1.902000069618225,8.416950225830078,-2.5350000858306885
1770770143625,,-2.130000114440918,9.997050285339355,-3.676950216293335
1770770143640,0.32993723328397695,-1.4449501037597656,8.794950485229492,-3.3919501304626465
1770770143660,,-1.596000075340271,8.95305061340332,-3.0259501934051514
1770770143679,,-1.977000117301941,7.1170501708984375,-2.820000171661377
1770770143711,1.801730288577033,-1.4140501022338867,10.207950592041016,-4.338000297546387
1770770143735,,-0.9280500411987305,11.110050201416016,-2.5950000286102295
1770770143759,1.0241352643774728,,,
1770770143760,,-0.17595000565052032,7.837050437927246,-4.242000102996826
1770770143790,,-1.2060000896453857,9.219000816345215,-4.194000244140625
1770770143833,,-1.045050024986267,8.725950241088867,-3.226950168609619
1770770143834,,,9.44895076751709,
1770770143840,1.4933289161826837,-1.075950026512146,10.417950630187988,-3.576000213623047
1770770143899,,-0.6720000505447388,,
1770770143900,,-0.24300001561641693,,-3.4639501571655273
1770770143901,,,8.632050514221191,
1770770143903,,-0.7219500541687012,,
1770770143904,1.2225438270435782,,,
1770770143960,,-0.7429500222206116,,
1770770143961,,-0.8130000233650208,9.372000694274902,-2.6950502395629883
1770770143963,1.538344472319232,,,
1770770143964,,-1.194000005722046,10.047000885009766,-1.908000111579895
1770770144018,,-0.583050012588501,,-2.9800500869750977
1770770144019,,,9.552000045776367,-2.616000175476074
1770770144023,1.5680290814982336,,,
1770770144024,,-0.5470499992370605,,
1770770144025,,,5.161050319671631,-2.227950096130371
1770770144059,,-3.4150502681732178,11.71095085144043,-1.4050500392913818
1770770144064,,-3.4200000762939453,10.272000312805176,-1.2679500579833984
1770770144100,,-2.716050148010254,7.561950206756592,-1.6110000610351562
1770770144103,0.7034527332718901,,,
1770770144104,,-4.111950397491455,9.172950744628906,-2.118000030517578
1770770144166,1.2469972784751433,,,
1770770144167,,-2.776050090789795,,
1770770144168,,,9.384000778198242,-3.4020001888275146
1770770144225,1.7290883640193633,,,
1770770144226,,-2.3329501152038574,11.106000900268555,-3.687000274658203
1770770144264,,-0.4819500148296356,,
1770770144265,,,7.1170501708984375,-3.973950147628784
1770770144284,1.4573625694115806,,,
1770770144285,,-1.4620500802993774,10.366050720214844,-2.299950122833252
1770770144348,,-1.7080501317977905,,-3.38700008392334
1770770144349,,,9.142050743103027,
1770770144367,0.4858038500770681,,,
1770770144368,,-0.8250000476837158,8.545949935913086,-2.647050142288208
1770770144395,,-1.158000111579895,6.942000389099121,-2.800950050354004
1770770144429,0.2870581704495714,,,
1770770144430,,-0.7050000429153442,9.69105052947998,-3.126000165939331
1770770144431,,,9.166050910949707,
1770770144459,,-1.4089500904083252,9.027000427246094,-2.8150501251220703
1770770144491,1.2259095999416123,,,
1770770144492,,-2.130000114440918,11.28795051574707,-0.35805001854896545
1770770144550,0.3634556177531928,-2.199000120162964,,
1770770144551,,-2.2210500240325928,12.72195053100586,-1.6870501041412354
1770770144571,,-1.380000114440918,10.038000106811523,-2.829000234603882
1770770144614,,-2.439000129699707,,-2.476950168609619
1770770144615,,,9.760050773620605,-1.9000500440597534
1770770144630,1.7732539817198503,,,
1770770144631,,-2.5609500408172607,11.031000137329102,-2.899050235748291
1770770144660,,-1.2510000467300415,,
1770770144661,,,9.607050895690918,-1.8240001201629639
1770770144671,,-1.1620500087738037,8.742000579833984,-2.710050106048584
1770770144692,2.946094034863086,-1.2889500856399536,,
1770770144693,,,12.310050964355469,-2.817000150680542
1770770144726,,-0.5160000324249268,8.019000053405762,-2.001000165939331
1770770144761,1.7486123305277688,-1.4830501079559326,,-2.889000177383423
1770770144762,,,8.617950439453125,
1770770144777,,-1.5619500875473022,9.918000221252441,-1.1680500507354736
1770770144816,1.5059856356914756,-1.2889500856399536,,
1770770144817,,,7.497000217437744,-0.9070500135421753
1770770144836,,-1.9789501428604126,,-2.4100501537323
1770770144837,,,11.10300064086914,
1770770144862,,-2.356950044631958,,-1.990950107574463
1770770144863,,,8.434050559997559,
1770770144891,,-2.635050058364868,13.291950225830078,-1.6750500202178955
1770770144893,1.2698938409485467,-2.7090001106262207,10.633950233459473,-1.1509500741958618
1770770144947,,-2.617950201034546,,-3.166950225830078
1770770144948,,,7.857000350952148,-1.2919501066207886
1770770144956,1.5630249667428147,,,
1770770144957,,-2.266050100326538,8.182050704956055,-2.0299501419067383
1770770144979,,-2.0910000801086426,11.589000701904297,-2.797950029373169
1770770144998,,-2.1820499897003174,,-3.2530500888824463
1770770144999,,,8.620050430297852,
1770770145015,1.3383438567812347,-1.7989500761032104,,
1770770145016,,,6.805050373077393,-2.401050090789795
1770770145041,,-0.3720000088214874,10.32705020904541,-2.0179500579833984
1770770145055,,-0.5899500250816345,8.908050537109375,-2.7360000610351562
1770770145076,2.607012290074008,-0.22200001776218414,10.37505054473877,-2.458050012588501
1770770145111,,-0.4350000321865082,9.172950744628906,-2.427000045776367
1770770145158,0.4506186193577926,,,
1770770145159,,-0.7630500197410583,,
1770770145160,,-0.595050036907196,9.481950759887695,-1.8570001125335693
1770770145161,,,9.820050239562988,
1770770145218,0.7691389139058544,,,
1770770145219,,-0.556950032711029,,
1770770145220,,-1.2490500211715698,7.533000469207764,-3.676950216293335
1770770145221,,,8.848050117492676,
1770770145257,,-1.2060000896453857,10.906950950622559,-1.6780500411987305
1770770145274,,-1.2439500093460083,8.9239501953125,-1.5289500951766968
1770770145278,0.8013724772952544,,,
1770770145279,,-1.6530001163482666,11.713950157165527,-2.5230000019073486
1770770145309,,-1.7080501317977905,7.16895055770874,-2.530050039291382
1770770145330,,-2.5030500888824463,11.067000389099121,-1.3210500478744507
1770770145339,1.9620363112889645,-2.1660001277923584,,-1.2799500226974487
1770770145340,,,10.039950370788574,
1770770145376,,-1.7869501113891602,,
1770770145377,,,10.282050132751465,-2.2210500240325928
1770770145384,,-1.818000078201294,8.742000579833984,-2.1880500316619873
1770770145420,2.819863915102079,,,
1770770145421,,-1.8709501028060913,9.319050788879395,-2.509050130844116
1770770145441,,-1.3560000658035278,7.2960004806518555,-0.8730000257492065
1770770145463,,-2.0629501342773438,,
1770770145464,,,12.087000846862793,-2.2669501304626465
1770770145481,2.2586642971784525,-1.579050064086914,,
1770770145482,,,11.188950538635254,-0.5670000314712524
1770770145511,,-1.5289500951766968,12.26205062866211,-2.619000196456909
1770770145545,2.9851455093266437,,,
1770770145546,,-0.7170000076293945,9.889050483703613,-1.9890000820159912
1770770145585,,-1.1890500783920288,9.142050743103027,-1.8550500869750977
1770770145602,0.46084428911597275,,,
1770770145603,,-2.0080502033233643,8.062050819396973,-2.302950143814087
1770770145646,,-1.4520000219345093,10.584000587463379,-1.3090500831604004
1770770145663,,-1.5690001249313354,,-3.390000104904175
1770770145664,,,8.800050735473633,
1770770145683,1.3463449483982606,,,
1770770145684,,-1.2250500917434692,8.315999984741211,-2.158950090408325
1770770145713,,-2.379000186920166,,
1770770145714,,,10.930950164794922,-2.7019500732421875
1770770145745,1.9809146055699995,,,
1770770145746,,-1.1890500783920288,,-2.668950080871582
1770770145747,,,10.22700023651123,
1770770145777,,-0.4249500334262848,10.894950866699219,-1.489050030708313
1770770145810,0.4786350490474539,-0.7890000343322754,9.363000869750977,-1.426050066947937
1770770145827,,-0.8560500144958496,10.368000030517578,-2.7360000610351562
1770770145847,,-0.7429500222206116,7.7560505867004395,-2.2039501667022705
1770770145864,0.7991533806432011,,,
1770770145865,,-1.3729500770568848,8.707050323486328,-1.963050127029419
1770770145915,,-0.9589500427246094,,-2.1660001277923584
1770770145916,,,10.57395076751709,
1770770145934,,-1.2990000247955322,9.223950386047363,-2.7910501956939697
1770770145947,0.14504122973116637,-1.3470001220703125,,
1770770145948,,,10.306050300598145,-1.503000020980835
1770770145981,,-0.46800002455711365,,
1770770145982,,,,-2.67900013923645
1770770145983,,,8.697000503540039,
1770770145990,,-1.0399500131607056,10.09005069732666,-2.521050214767456
1770770146010,0.9066442750054436,-1.3990501165390015,10.25100040435791,-2.2039501667022705
1770770146044,,-1.7869501113891602,,
1770770146045,,,9.123000144958496,-2.959050178527832
1770770146048,,-2.4840002059936523,,
1770770146049,,,10.135950088500977,-0.5929500460624695
1770770146077,1.659163880792128,-1.3470001220703125,10.135950088500977,-1.0909500122070312
1770770146101,,-0.9330000281333923,11.944050788879395,-1.9030500650405884
1770770146115,,-0.14505000412464142,10.098000526428223,-0.6340500116348267
1770770146128,1.2124622221105144,0.6510000228881836,,
1770770146129,,,8.532000541687012,-2.370000123977661
1770770146156,,-0.16905000805854797,9.136950492858887,-2.491950035095215
1770770146182,,-0.17805001139640808,9.243000030517578,-2.599950075149536
1770770146210,1.889113144870125,,,
1770770146211,,-0.32895001769065857,9.829050064086914,-2.668950080871582
1770770146250,,-0.9330000281333923,10.312950134277344,-2.209050178527832
1770770146276,0.320705300903373,-0.5539500117301941,9.676050186157227,-2.5540502071380615
1770770146317,,-0.8800500631332397,9.098999977111816,-2.133000135421753
1770770146331,1.5214331328120891,,,
1770770146332,,-0.6910500526428223,8.200950622558594,-1.6470000743865967
1770770146380,,-0.922950029373169,9.12600040435791,-0.3439500033855438
1770770146392,1.8970770965458013,,,
1770770146393,,-0.46095001697540283,10.038000106811523,-0.547950029373169
1770770146429,,-1.2439500093460083,,
1770770146430,,,10.809000968933105,-1.3780500888824463
1770770146453,,-0.5590500235557556,7.801050186157227,-0.9310500621795654
1770770146473,1.6544519417066765,,,
1770770146474,,-0.778950035572052,10.569000244140625,-2.0080502033233643
1770770146528,,-0.14505000412464142,,-2.1919500827789307
1770770146529,,,9.612000465393066,
1770770146546,1.4733807226186244,-0.15000000596046448,8.422050476074219,-2.9710500240325928
1770770146599,0.7571933222478754,-0.6000000238418579,9.790950775146484,-2.341050148010254
1770770146650,,-1.8300000429153442,,-1.7160000801086426
1770770146651,,,9.592050552368164,
1770770146655,1.6219547788663837,,,
1770770146656,,-0.6430500149726868,10.095000267028809,-1.5529500246047974
1770770146706,,-0.19005000591278076,,
1770770146707,,-0.8179500102996826,9.601950645446777,-1.5529500246047974
1770770146708,,,8.778000831604004,
1770770146721,,0.036000002175569534,9.463050842285156,-1.7500500679016113
1770770146739,0.9604723975560842,-0.09495000541210175,10.981050491333008,-1.6390501260757446
1770770146760,,-0.22395001351833344,9.856050491333008,-0.909000039100647
1770770146789,,-0.4350000321865082,,
1770770146790,,,10.210050582885742,-0.14505000412464142
1770770146797,1.4546424571929806,-0.2070000171661377,9.327000617980957,-0.14295001327991486
1770770146855,,0.2659500241279602,,-1.0890001058578491
1770770146856,,,10.881000518798828,-0.10905000567436218
1770770146858,1.6346134310922127,,,
1770770146867,,-0.48000001907348633,10.456950187683105,-0.6700500249862671
1770770146919,2.3078488150123917,,,
1770770146920,,-0.13500000536441803,,
1770770146921,,,9.279000282287598,-0.8010000586509705
1770770146982,,-0.5659500360488892,,1.111050009727478
1770770146983,,,10.380000114440918,0.7230000495910645
1770770146999,1.6740232551992085,0.6010500192642212,,
1770770147000,,,9.505950927734375,0.361050009727478
1770770147040,,0.7810500264167786,10.642950057983398,-0.3730500042438507
1770770147061,,1.1809500455856323,9.664050102233887,-0.10200000554323196
1770770147062,0.9295761939344133,,,
1770770147104,,0.44805002212524414,,
1770770147105,,,10.723050117492676,-0.7990500330924988
1770770147122,0.42227025413269575,0.7210500240325928,10.246050834655762,-0.11205000430345535
1770770147145,,-0.17400000989437103,10.119000434875488,-0.4350000321865082
1770770147183,0.7674935175345458,,,
1770770147184,,-0.25995001196861267,9.894000053405762,-0.19095000624656677
1770770147256,,-0.3340500295162201,10.099950790405273,0.3469500243663788
1770770147263,1.1431963429992464,0.984000027179718,,
1770770147264,,,10.27500057220459,0.7680000066757202
1770770147310,,2.1220500469207764,10.098000526428223,-0.3660000264644623
1770770147324,3.3993763295539434,4.365000247955322,,
1770770147325,,,9.577950477600098,-1.7620500326156616
1770770147371,,2.2699501514434814,9.468000411987305,-3.1429500579833984
1770770147388,4.2228355687237595,-0.8940000534057617,10.153050422668457,-5.314950466156006
1770770147421,,-1.1100000143051147,8.449950218200684,-2.7049500942230225
1770770147445,1.8805231762416106,,,
1770770147446,,-2.7330000400543213,9.432000160217285,-2.3050501346588135
1770770147468,,-1.2769500017166138,9.885000228881836,-1.102950096130371
1770770147531,4.193251574214029,,,
1770770147533,,1.9350000619888306,9.601950645446777,-0.33000001311302185
1770770147587,,5.035050392150879,,
1770770147589,0.3893144174964313,,10.32300090789795,-0.8209500312805176
1770770147640,,-0.23295001685619354,10.332000732421875,-1.6110000610351562
1770770147647,2.383181784108627,,,
1770770147648,,-0.30105000734329224,11.769001007080078,-1.8880500793457031
1770770147680,,-0.2070000171661377,11.800050735473633,-2.817000150680542
1770770147696,,0.36900001764297485,12.316950798034668,-3.078000068664551
1770770147712,0.7779878411188715,,,
1770770147713,,0.11295000463724136,9.808050155639648,-1.951050043106079
1770770147729,,0.6780000329017639,,
1770770147730,,,7.624050140380859,-1.5649501085281372
1770770147753,,1.0009500980377197,6.363000392913818,-1.6440000534057617
1770770147791,1.9677022537721813,,,
1770770147793,,0.4069500267505646,7.639050483703613,-2.67900013923645
1770770147794,,,8.017050743103027,
1770770147852,2.020305905548922,,,
1770770147853,,-0.29100000858306885,8.605950355529785,-4.60605001449585
1770770147854,,,7.722000598907471,
1770770147911,1.0863451295555355,0.47700002789497375,,
1770770147912,,,9.741000175476074,-3.957000255584717
1770770147933,,1.26705002784729,9.612000465393066,-1.6009501218795776
1770770147971,1.4162940863054567,,,
1770770147972,,1.2139500379562378,10.167000770568848,-1.3069500923156738
1770770147997,,2.593050241470337,9.718950271606445,-0.5359500050544739
1770770148024,,2.6170501708984375,,-0.895050048828125
1770770148025,,,10.098000526428223,
1770770148053,0.760749003976,2.0209500789642334,9.873000144958496,-1.3210500478744507
1770770148081,,1.5730500221252441,,
1770770148082,,,9.658950805664062,-1.3810501098632812
1770770148114,0.4278900002723467,,,
1770770148115,,1.3150500059127808,9.729000091552734,-1.9290001392364502
1770770148148,,1.221000075340271,9.303000450134277,-2.110949993133545
1770770148178,0.23434662647163174,,,
1770770148179,,1.0110000371932983,9.469950675964355,-2.1540000438690186
1770770148199,,2.0280001163482666,9.613950729370117,-1.7040001153945923
1770770148236,1.8773283806599146,2.8060500621795654,,
1770770148237,,3.510000228881836,9.837000846862793,-1.4100000858306885
1770770148266,,3.9940502643585205,,
1770770148267,,,9.78600025177002,-0.9450000524520874
1770770148301,,4.152000427246094,10.29900074005127,-0.8710500597953796
1770770148317,0.8299480381177453,2.6479501724243164,9.760050773620605,-1.4740500450134277
1770770148356,,1.5970500707626343,9.384000778198242,-1.6630500555038452
1770770148381,1.5640230766457366,-0.17100000381469727,9.48900032043457,-2.2669501304626465
1770770148418,,-1.7389501333236694,8.3899507522583,-4.2970499992370605
1770770148451,1.9100089611222726,-3.850950241088867,7.6650004386901855,-6.739050388336182
1770770148468,,3.8479502201080322,8.383049964904785,-1.8720000982284546
1770770148502,1.3995930250460118,,,
1770770148503,,0.13695000112056732,,-1.5510001182556152
1770770148504,,,9.312000274658203,
1770770148520,,-0.3150000274181366,,-2.7169501781463623
1770770148521,,,9.54900074005127,
1770770148577,,1.9780501127243042,,
1770770148578,,,9.949050903320312,-0.9619500637054443
1770770148579,1.350749482398505,1.2280501127243042,9.849000930786133,-2.0440499782562256
1770770148602,,-1.8780001401901245,,
1770770148603,,,9.439050674438477,-2.668950080871582
1770770148630,,-2.0719501972198486,8.776050567626953,-2.5660500526428223
1770770148640,0.9125145741174135,,,
1770770148641,,-0.6409500241279602,9.159000396728516,-2.4750001430511475
1770770148672,,0.15105000138282776,9.81705093383789,-2.6449501514434814
1770770148690,,0.20805001258850098,9.312000274658203,-2.5489501953125
1770770148708,1.5559424314709975,,,
1770770148709,,-1.0600500106811523,9.001049995422363,-3.3490500450134277
1770770148741,,-1.7419500350952148,,
1770770148742,,,9.160950660705566,-4.417050361633301
1770770148762,1.5004555487297813,0.36900001764297485,9.451050758361816,-3.664950132369995
1770770148794,,0.8290500640869141,,
1770770148795,,,9.358050346374512,-3.20805025100708
1770770148805,,0.25905001163482666,9.367050170898438,-3.1840500831604004
1770770148844,0.6177640467366278,0.5560500025749207,9.67905044555664,-2.6520001888275146
1770770148845,,,9.427050590515137,
1770770148871,,0.505050003528595,9.44895076751709,-2.3940000534057617
1770770148903,0.3778691009139262,,,
1770770148904,,0.10305000841617584,9.544950485229492,-2.4460501670837402
1770770148938,,-0.16200000047683716,,
1770770148939,,,9.44895076751709,-2.427000045776367
1770770148972,0.25145223641503756,-0.18105000257492065,9.432000160217285,-2.4180002212524414
1770770149006,,-0.16200000047683716,,-2.5729501247406006
1770770149007,,,9.466050148010254,-2.719050168991089
1770770149026,0.2389263737887205,0.031050002202391624,9.43695068359375,-2.9610002040863037
1770770149070,,-0.10695000737905502,,-3.0859501361846924
1770770149071,,,9.279000282287598,
1770770149107,0.10917645980212992,0.016950000077486038,,
1770770149108,,0.010050000622868538,9.315000534057617,-3.049950122833252
1770770149125,,0.09105000644922256,,
1770770149126,,,9.480000495910645,-2.7550501823425293
1770770149167,0.19533675043237253,0.16500000655651093,9.52500057220459,-2.7360000610351562
1770770149208,,0.024000000208616257,9.492000579833984,-2.748000144958496
1770770149230,0.10010618313082581,0.012000000104308128,9.37695026397705,-2.7139501571655273
1770770149273,,0.034050002694129944,9.42495059967041,-2.700000047683716
1770770149289,0.07377986327079518,0.09600000083446503,9.385950088500977,-2.8530001640319824
1770770149343,,0.13395000994205475,,
1770770149344,,,9.43695068359375,-2.880000114440918
1770770149369,0.0971318661890575,,,
1770770149370,,0.22305001318454742,,
1770770149371,,,9.415050506591797,-2.805000066757202
1770770149400,,0.23205001652240753,9.523050308227539,-2.748000144958496
1770770149410,,0.27105000615119934,9.427050590515137,-2.7619500160217285
1770770149430,0.06260612165725035,0.1870500147342682,9.456000328063965,-2.785950183868408
1770770149455,,0.14100000262260437,9.456000328063965,-2.7739500999450684
1770770149477,,0.09600000083446503,9.456000328063965,-2.7769501209259033
1770770149490,0.028088445675806612,,,
1770770149491,,0.10305000841617584,9.42495059967041,-2.7499501705169678
1770770149511,,0.08595000207424164,9.409950256347656,-2.748000144958496
1770770149545,,0.07200000435113907,9.456000328063965,-2.7619500160217285
1770770149551,0.03854868140103087,,,
1770770149552,,0.0499500036239624,9.421950340270996,-2.808000087738037
1770770149613,,0.05505000427365303,,
1770770149614,,,,-2.8150501251220703
1770770149616,,,9.454050064086914,
1770770149634,0.011073335524269185,,,
1770770149635,,0.11295000463724136,9.442049980163574,-2.77905011177063
1770770149674,,0.12000000476837158,,
1770770149675,,0.11295000463724136,,-2.7930002212524414
1770770149676,,,9.468000411987305,
1770770149694,0.04014121231161361,,,
1770770149695,,0.07200000435113907,9.43695068359375,-2.7769501209259033
1770770149733,,0.06000000238418579,,
1770770149734,,,9.415050506591797,-2.8129501342773438
1770770149751,,0.07905000448226929,9.44895076751709,-2.8129501342773438
1770770149755,0.057600289630937815,0.06495000422000885,9.47700023651123,-2.829000234603882
1770770149785,,0.09600000083446503,9.44895076751709,-2.848950147628784
1770770149813,,0.11295000463724136,,
1770770149814,,,9.41295051574707,-2.829000234603882
1770770149815,0.05089894968933006,0.07005000114440918,9.415050506591797,-2.8219501972198486
1770770149840,,0.016950000077486038,9.415050506591797,-2.8369500637054443
1770770149875,,0.037950001657009125,9.415050506591797,-2.817000150680542
1770770149895,0.015150775554420898,0.07905000448226929,9.403050422668457,-2.8720500469207764
1770770149950,,0.05505000427365303,9.403050422668457,-2.868000030517578
1770770149967,0.02058165106469302,0.027000000700354576,9.397950172424316,-2.8440001010894775
1770770150017,,0.015000000596046448,,-2.8750500679016113
1770770150018,0.04278279565749038,0.04800000041723251,9.427050590515137,-2.8510501384735107
1770770150059,,-0.004050000105053186,9.418050765991211,-2.880000114440918
1770770150078,0.009648572244166612,0.036000002175569534,9.379050254821777,-2.9230501651763916
1770770150114,,0.019050000235438347,9.406050682067871,-2.9010000228881836
1770770150152,,0.015000000596046448,9.418050765991211,-2.9040000438690186
1770770150161,0.08162337467706224,0.016950000077486038,9.43695068359375,-2.8440001010894775
1770770150216,,0.034050002694129944,9.433950424194336,-2.8030500411987305
1770770150221,0.03829623356081202,-0.0010500000789761543,9.415050506591797,-2.848950147628784
1770770150275,,0.003000000026077032,9.442049980163574,-2.8750500679016113
1770770150280,0.054115000150814344,0.07005000114440918,9.415050506591797,-2.8369500637054443
1770770150334,,0.07200000435113907,9.421950340270996,-2.8249502182006836
1770770150341,0.02975637870982631,,,
1770770150342,,-0.028050001710653305,9.396000862121582,-2.8339500427246094
1770770150389,,0.010050000622868538,9.397950172424316,-2.8630502223968506
1770770150419,,0.07005000114440918,,
1770770150420,,,,-2.880000114440918
1770770150421,,,9.406050682067871,
1770770150429,0.04088014553622902,,9.415050506591797,-2.839050054550171
1770770150430,,0.031050002202391624,,
1770770150444,,0.031050002202391624,,
1770770150445,,,9.433950424194336,-2.7910501956939697
1770770150476,,0.07905000448226929,9.44895076751709,-2.8150501251220703
1770770150488,0.04374376011951344,0.07695000618696213,9.415050506591797,-2.8410000801086426
1770770150544,0.03780227104313018,0.036000002175569534,,
1770770150545,,0.0070500001311302185,9.454050064086914,-2.82705020904541
1770770150605,0.04568855764665795,-0.018000001087784767,,
1770770150606,,-0.0010500000789761543,9.444000244140625,-2.8369500637054443
1770770150665,,-0.04905000329017639,,
1770770150666,,,9.415050506591797,-2.8510501384735107
1770770150685,0.08780547892002284,,,
