timestamp,LinearAccelerometerSensor,AccX,AccY,AccZ
1770770012053,0.02737355417366025,-0.7290000319480896,,-3.4450502395629883
1770770012054,,,9.181050300598145,
1770770012095,,-0.7150500416755676,,-3.4020001888275146
1770770012096,,,9.184950828552246,
1770770012109,0.02737355417366025,-0.739050030708313,9.175950050354004,-3.4330501556396484
1770770012151,,-0.7960500121116638,,
1770770012152,,-0.7750500440597534,9.187950134277344,-3.427950143814087
1770770012180,,-0.7699500322341919,,
1770770012181,,,9.193050384521484,-3.4260001182556152
1770770012189,0.04019705925001542,,,
1770770012190,,-0.7099500298500061,9.196950912475586,-3.4039502143859863
1770770012219,,-0.7150500416755676,,
1770770012220,,,9.199950218200684,-3.394050121307373
1770770012230,,-0.7099500298500061,9.193050384521484,-3.394050121307373
1770770012259,0.060789881929297664,-0.7720500230789185,9.211950302124023,-3.4230000972747803
1770770012285,,-0.7579500079154968,9.183000564575195,-3.4260001182556152
1770770012305,,-0.778950035572052,9.171000480651855,-3.4230000972747803
1770770012312,0.02760858729978864,-0.736050009727478,,
1770770012313,,,9.196950912475586,-3.415950059890747
1770770012341,,-0.736050009727478,9.183000564575195,-3.4420502185821533
1770770012353,,-0.6790500283241272,9.169050216674805,-3.427950143814087
1770770012371,,-0.7270500063896179,9.171000480651855,-3.4210500717163086
1770770012396,,-0.7939500212669373,,
1770770012398,,,9.196950912475586,-3.43500018119812
1770770012422,,-0.7699500322341919,,-3.4420502185821533
1770770012423,,,9.19005012512207,
1770770012449,,-0.7600500583648682,,-3.457050085067749
1770770012450,,,9.163949966430664,
1770770012453,0.0506752953690948,-0.7170000076293945,,-3.457050085067749
1770770012454,,,9.169050216674805,
1770770012489,,-0.6930000185966492,9.196950912475586,-3.44700026512146
1770770012512,,-0.6739500164985657,9.20895004272461,-3.4140002727508545
1770770012513,0.05933368894260561,,,
1770770012514,,-0.6690000295639038,9.22095012664795,-3.409050226211548
1770770012556,,-0.6360000371932983,,-3.4489500522613525
1770770012557,,,9.187950134277344,-3.5089502334594727
1770770012574,0.030873076273398026,-0.6169500350952148,,
1770770012575,,,9.20895004272461,-3.4639501571655273
1770770012616,,-0.6190500259399414,,-3.3990001678466797
1770770012617,,,9.205050468444824,-3.4230000972747803
1770770012636,0.030873076273398026,,,
1770770012637,,-0.6450000405311584,9.21405029296875,-3.4710001945495605
1770770012670,,-0.6379500031471252,,-3.457050085067749
1770770012671,,,9.232950210571289,
1770770012701,,-0.5590500235557556,9.235950469970703,-3.526050090789795
1770770012718,0.07563194850849368,-0.48705002665519714,9.130050659179688,-3.646050214767456
1770770012757,,-0.5179499983787537,,
1770770012758,,-0.556950032711029,9.115950584411621,-3.6600000858306885
1770770012775,0.08078616543743528,,,
1770770012776,,-0.6000000238418579,9.065999984741211,-3.748950242996216
1770770012826,,-0.6670500040054321,9.079950332641602,-3.808950185775757
1770770012842,0.07772065968979969,-0.7339500188827515,8.97195053100586,-3.8110501766204834
1770770012890,,-0.8149500489234924,,
1770770012891,,-0.820050060749054,9.037050247192383,-3.9019501209259033
1770770012913,0.07772065968979969,-0.8680500388145447,9.010950088500977,-4.0410003662109375
1770770012946,,-1.0210500955581665,,
1770770012947,,,8.96505069732666,-3.9910502433776855
1770770012963,,-0.9570000171661377,8.96505069732666,-3.7990500926971436
1770770012979,0.11992799000883418,,,
1770770012980,,-0.9180000424385071,9.098999977111816,-3.745950222015381
1770770013002,,-0.8509500622749329,9.098999977111816,-3.6310501098632812
1770770013027,,-0.9109500646591187,,-3.4999501705169678
1770770013028,,,9.1399507522583,
1770770013044,0.30164026236147995,,,
1770770013045,,-0.906000018119812,9.157050132751465,-3.3540000915527344
1770770013095,,-0.7579500079154968,,-3.2629501819610596
1770770013096,,,9.385950088500977,-3.037950038909912
1770770013100,0.6374492550269197,,,
1770770013101,,-0.9450000524520874,9.609000205993652,-2.808000087738037
1770770013161,0.6374492550269197,,,
1770770013163,,-0.922950029373169,,-2.69100022315979
1770770013164,,,9.43695068359375,
1770770013225,,-0.4710000157356262,9.268950462341309,-2.590050220489502
1770770013228,,-0.21000000834465027,9.348000526428223,-2.9280002117156982
1770770013258,0.5787294166645239,,,
1770770013259,,0.2950500249862671,9.640050888061523,-3.2149500846862793
1770770013275,,0.7279500365257263,,
1770770013276,,,9.481950759887695,-3.7009501457214355
1770770013295,,0.3430500030517578,9.121050834655762,-3.639000177383423
1770770013303,0.5610651949418021,,,
1770770013304,,-0.04200000315904617,9.46095085144043,-3.7540502548217773
1770770013335,,-0.697950005531311,9.160950660705566,-3.7800002098083496
1770770013364,0.3909583386082374,,,
1770770013365,,-0.6910500526428223,9.12600040435791,-3.3349502086639404
1770770013385,,-0.6840000152587891,9.235950469970703,-2.857950210571289
1770770013424,0.3909583386082374,,,
1770770013425,,-0.6480000019073486,9.382050514221191,-2.848950147628784
1770770013496,,-0.05400000140070915,,
1770770013497,,-0.031950000673532486,,-3.280050039291382
1770770013498,,,9.065999984741211,-3.367950201034546
1770770013507,0.31242036997000233,-0.5299500226974487,9.207000732421875,-3.5910000801086426
1770770013551,,-0.6670500040054321,9.319050788879395,-3.3990001678466797
1770770013567,0.3022861608222487,-0.8340000510215759,9.175950050354004,-3.4110002517700195
1770770013605,,-1.0330500602722168,9.255000114440918,-3.375000238418579
1770770013628,0.6095588602336574,,,
1770770013629,,-1.4020500183105469,9.235950469970703,-3.4590001106262207
1770770013663,,-1.456950068473816,8.87700080871582,-3.330000162124634
1770770013688,0.6095588602336574,-1.5120000839233398,,
1770770013689,,,8.944050788879395,-3.157050132751465
1770770013717,,-1.6990500688552856,9.019950866699219,-3.4110002517700195
1770770013766,,-1.6579500436782837,,-3.106950044631958
1770770013767,,,9.22605037689209,-3.3420002460479736
1770770013769,0.5321383901931598,-1.8019500970840454,8.958000183105469,-3.366000175476074
1770770013825,,-1.6819500923156738,,-3.409050226211548
1770770013826,,,9.22095012664795,-3.394050121307373
1770770013831,0.22805061466643975,,,
1770770013832,,-1.4209500551223755,8.991000175476074,-3.3630001544952393
1770770013881,,-1.2850500345230103,,-3.5089502334594727
1770770013882,,,9.115950584411621,
1770770013892,0.09827584169908507,,,
1770770013893,,-1.057050108909607,9.106050491333008,-3.4729502201080322
1770770013935,,-1.1190000772476196,9.097050666809082,-3.466050148010254
1770770013953,0.09827584169908507,-0.7890000343322754,,
1770770013954,,,9.145050048828125,-3.469050168991089
1770770013990,,-0.597000002861023,9.175950050354004,-3.438000202178955
1770770014034,0.20618747211304633,-0.6690000295639038,9.067950248718262,-3.5430002212524414
1770770014093,0.3086706741645644,,,
1770770014094,,-0.8580000400543213,8.9239501953125,-3.5839502811431885
1770770014155,0.49586884213839066,,,
1770770014156,,-1.2030000686645508,9.007950782775879,-3.7270500659942627
1770770014210,,0.0580500029027462,,
1770770014211,,0.07395000010728836,8.860050201416016,-3.6910502910614014
1770770014228,0.49586884213839066,0.13905000686645508,8.833050727844238,-3.835050106048584
1770770014242,,0.49605002999305725,8.93595027923584,-3.607950210571289
1770770014265,,0.9720000624656677,9.334050178527832,-3.805950164794922
1770770014296,1.1085681398859808,1.4749500751495361,,
1770770014297,,,8.881050109863281,-4.222949981689453
1770770014319,,1.645050048828125,,
1770770014320,,,9.015000343322754,-4.1579999923706055
1770770014360,0.6978997090874856,1.7860500812530518,,
1770770014361,,1.5799500942230225,9.322050094604492,-4.279950141906738
1770770014381,,1.1329500675201416,8.756999969482422,-4.038000106811523
1770770014421,0.23160336727134656,0.8530500531196594,,-3.8800501823425293
1770770014422,,,8.854949951171875,
1770770014438,,1.0030500888824463,,
1770770014439,,,9.23805046081543,-3.913950204849243
1770770014477,0.23160336727134656,,,
1770770014478,,0.9100500345230103,9.079950332641602,-3.805950164794922
1770770014509,,0.9049500226974487,9.166050910949707,-3.318000078201294
1770770014541,,0.7260000109672546,9.310050010681152,-3.3229501247406006
1770770014560,0.7873728195308005,0.7930500507354736,9.319050788879395,-2.9950501918792725
1770770014595,,1.072950005531311,9.148950576782227,-2.9850001335144043
1770770014621,0.3911818159732339,,,
1770770014622,,1.2570000886917114,9.351000785827637,-2.940000057220459
1770770014640,,1.1779500246047974,9.079950332641602,-3.223950147628784
1770770014682,0.48725545324852804,,,
1770770014683,,1.3240500688552856,,-3.5329501628875732
1770770014685,,,9.520950317382812,
1770770014708,,1.5109500885009766,8.914950370788574,-3.8370001316070557
1770770014744,0.48725545324852804,1.7820000648498535,,-3.4590001106262207
1770770014745,,,8.814000129699707,
1770770014762,,2.1720001697540283,9.334050178527832,-3.5520002841949463
1770770014815,,2.1889500617980957,,
1770770014816,,2.1409502029418945,9.334050178527832,-3.2599501609802246
1770770014823,0.6707538743278657,,,
1770770014824,,2.212050199508667,9.612000465393066,-2.9040000438690186
1770770014871,,2.184000015258789,,-2.698050022125244
1770770014872,,,9.745950698852539,
1770770014883,1.8113250870604107,,,
1770770014884,,-0.39900001883506775,,
1770770014885,,,,-2.431950092315674
1770770014886,,,8.440950393676758,
1770770014913,,0.1099500060081482,9.874950408935547,-3.6000001430511475
1770770014924,,0.18900001049041748,,
1770770014925,,,9.67905044555664,-2.977950096130371
1770770014944,1.416510807140205,,,
1770770014945,,1.111050009727478,8.557950019836426,-3.517050266265869
1770770014975,,0.9439500570297241,,
1770770014976,,,8.908050537109375,-4.06695032119751
1770770015005,1.416510807140205,,,
1770770015006,,1.9489500522613525,10.222050666809082,-3.06600022315979
1770770015035,,2.3269500732421875,,
1770770015037,,,8.62695026397705,-3.2530500888824463
1770770015086,1.8338321382918026,2.5000500679016113,,
1770770015087,,,10.20300006866455,-2.5609500408172607
1770770015106,,2.7370500564575195,9.41295051574707,-2.092050075531006
1770770015147,1.8952869284619493,,,
1770770015148,,2.4210000038146973,11.42595100402832,-1.2750000953674316
1770770015174,,2.2770001888275146,,
1770770015175,,,9.595050811767578,-1.434000015258789
1770770015200,,2.3610000610351562,,
1770770015201,,,9.432000160217285,-1.8430501222610474
1770770015208,1.573607295249509,,,
1770770015209,,2.205000162124634,10.186050415039062,-2.269050121307373
1770770015243,,2.3610000610351562,9.493950843811035,-2.0659501552581787
1770770015254,,2.064000129699707,9.469950675964355,-2.638050079345703
1770770015268,,1.9609501361846924,,
1770770015269,,,9.420000076293945,-2.707050085067749
1770770015307,,2.1480000019073486,,-2.974950075149536
1770770015308,,,9.352950096130371,
1770770015311,,1.9750500917434692,,
1770770015312,,,9.406050682067871,-3.0040502548217773
1770770015349,0.3865702565555228,2.0470499992370605,,
1770770015350,,,8.902950286865234,-3.4399502277374268
1770770015380,,1.738050103187561,8.967000007629395,-3.283950090408325
1770770015410,0.33561445938905754,,,
1770770015411,,1.683000087738037,,
1770770015413,,,8.472000122070312,-4.06695032119751
1770770015414,,,9.007950782775879,
1770770015444,,0.843000054359436,,
1770770015445,,,9.031949996948242,-3.687000274658203
1770770015471,0.5971419421534134,,,
1770770015472,,0.8020500540733337,,
1770770015473,,,,-3.5119502544403076
1770770015474,,,8.98905086517334,
1770770015507,,0.5410500168800354,9.051000595092773,-3.4830002784729004
1770770015510,,0.45705002546310425,,
1770770015511,,,9.082050323486328,-3.0739500522613525
1770770015529,0.5971419421534134,,,
1770770015530,,0.5290500521659851,8.944050788879395,-2.880000114440918
1770770015578,,0.3739500045776367,,
1770770015579,,,9.22605037689209,-2.7460501194000244
1770770015624,2.0362124347441597,0.8290500640869141,,-0.7729500532150269
1770770015625,,,6.1020002365112305,-5.238000392913818
1770770015640,,1.8840000629425049,10.608000755310059,-3.813000202178955
1770770015673,0.5757989743531325,,,
1770770015674,,1.9489500522613525,,
1770770015675,,,6.315000534057617,-1.3830000162124634
1770770015700,,0.9100500345230103,11.218050956726074,-3.763050079345703
1770770015713,,2.095050096511841,8.8410005569458,-2.887050151824951
1770770015734,1.482689553119042,,,
1770770015735,,3.5149502754211426,9.030000686645508,-2.9850001335144043
1770770015785,,2.4660000801086426,,-3.6630001068115234
1770770015786,,,9.664050102233887,-3.766050100326538
1770770015806,1.482689553119042,2.0590500831604004,,
1770770015807,,,9.079950332641602,-3.6670501232147217
1770770015851,,1.5180001258850098,8.979000091552734,-2.616000175476074
1770770015868,,0.9460500478744507,8.9239501953125,-3.069000244140625
1770770015875,0.6043605876888645,1.1350500583648682,,
1770770015876,,,9.310050010681152,-3.114000082015991
1770770015908,,0.7780500650405884,,
1770770015909,,,8.902950286865234,-2.8410000801086426
1770770015915,,0.9670500755310059,,-2.458050012588501
1770770015916,,,8.63895034790039,
1770770015937,0.322695197278667,0.9720000624656677,,
1770770015938,,,9.469950675964355,-3.0739500522613525
1770770015970,,0.7690500617027283,,
1770770015971,,,8.958000183105469,-2.680950164794922
1770770015989,,1.6309500932693481,9.451050758361816,-3.556950092315674
1770770015997,0.7784902274682778,0.7060500383377075,,-3.258000135421753
1770770015998,,,8.89995002746582,
1770770016025,,0.817050039768219,,
1770770016026,,,9.42495059967041,-3.5719501972198486
1770770016049,,0.7399500608444214,9.049050331115723,-2.7810001373291016
1770770016060,0.7784902274682778,0.49800002574920654,9.565950393676758,-3.52905011177063
1770770016095,,0.3469500243663788,9.123000144958496,-3.3730502128601074
1770770016111,,0.5269500017166138,8.862000465393066,-3.7420501708984375
1770770016135,,1.1370000839233398,9.360000610351562,-3.576000213623047
1770770016139,0.2545391703966304,1.5730500221252441,9.418050765991211,-3.5119502544403076
1770770016183,,1.4419500827789307,,-3.258000135421753
1770770016184,,,9.219000816345215,
1770770016199,0.6426990244565842,,,
1770770016200,,1.6810500621795654,9.351000785827637,-3.2820000648498535
1770770016245,,1.4869500398635864,,-2.8510501384735107
1770770016246,,,9.2160005569458,
1770770016260,0.28900282475797057,,,
1770770016261,,1.294950008392334,9.147000312805176,-3.438000202178955
1770770016301,,1.114050030708313,,
1770770016302,,,9.340950012207031,-3.409050226211548
1770770016330,0.28900282475797057,1.2619500160217285,9.268950462341309,-2.7169501781463623
1770770016356,,1.2790501117706299,9.013050079345703,-3.3610501289367676
1770770016385,,1.6570501327514648,,-3.5329501628875732
1770770016386,,,9.243000030517578,-2.4030001163482666
1770770016402,0.16003021072366075,1.3050000667572021,9.310050010681152,-3.7819502353668213
1770770016452,,1.7839500904083252,9.280950546264648,-3.129000186920166
1770770016453,,,9.133049964904785,
1770770016465,0.3319232652880456,,,
1770770016466,,1.0230000019073486,9.148950576782227,-3.1810500621795654
1770770016510,,1.2400500774383545,9.17805004119873,-3.307950258255005
1770770016523,0.9077591005466396,1.3890000581741333,8.644050598144531,-3.664950132369995
1770770016577,,1.4940000772476196,8.93595027923584,-3.567000150680542
1770770016583,0.9077591005466396,1.3530000448226929,,-3.046950101852417
1770770016584,,,8.886000633239746,
1770770016629,,1.450950026512146,9.43005084991455,-3.1530001163482666
1770770016630,,,9.528000831604004,
1770770016653,,1.546950101852417,9.147000312805176,-3.1410000324249268
1770770016665,0.28271405313806225,1.3650000095367432,8.974950790405273,-2.9230501651763916
1770770016685,,1.6500000953674316,9.432000160217285,-3.057000160217285
1770770016714,,1.4680501222610474,9.516000747680664,-2.8339500427246094
1770770016729,0.2916164085252486,,,
1770770016730,,1.3579500913619995,9.312000274658203,-2.9710500240325928
1770770016787,0.29043186446030084,,,
1770770016788,,1.5370501279830933,,
1770770016789,,1.2120000123977661,,
1770770016790,,,9.535050392150879,-3.1530001163482666
1770770016791,,,9.207000732421875,
1770770016848,0.29043186446030084,,,
1770770016849,,1.6380001306533813,,
1770770016850,,,9.433950424194336,-3.0330002307891846
1770770016851,,,9.394050598144531,
1770770016905,,1.801050066947937,,
1770770016906,,,9.136950492858887,-3.3349502086639404
1770770016913,,2.0209500789642334,9.267000198364258,-3.5380501747131348
1770770016929,0.34726297444038967,2.0310001373291016,9.136950492858887,-3.517050266265869
1770770016963,,1.4440500736236572,9.109050750732422,-3.5689501762390137
1770770016990,0.9425702634974428,1.01295006275177,,
1770770016991,,0.4140000343322754,9.022950172424316,-3.5929501056671143
1770770017015,,0.2950500249862671,8.934000015258789,-3.4519500732421875
1770770017053,0.751788232732463,0.20100000500679016,,-3.280050039291382
1770770017054,,,8.874000549316406,-2.977950096130371
1770770017071,,0.4050000309944153,,-2.7840001583099365
1770770017072,,,9.160950660705566,
1770770017111,0.751788232732463,,,
1770770017112,,0.9049500226974487,,-2.329050064086914
1770770017113,,,9.334050178527832,
1770770017180,,1.207050085067749,,
1770770017182,,,9.375,-1.8480000495910645
1770770017200,0.5969298692019209,,,
1770770017201,,1.6350001096725464,9.547050476074219,-2.319000005722046
1770770017234,,2.2170000076293945,,-3.3730502128601074
1770770017235,,,9.10200023651123,
1770770017252,5.66522819362467,,,
1770770017254,,5.73900032043457,8.067000389099121,-7.093950271606445
1770770017291,,3.3109500408172607,10.452000617980957,-5.90595006942749
1770770017313,0.8808105861237275,,,
1770770017314,,1.8990000486373901,10.035000801086426,-4.13700008392334
1770770017345,,0.8500500321388245,9.1399507522583,-1.7329500913619995
1770770017373,,1.1590501070022583,9.007950782775879,-1.612950086593628
1770770017399,,0.62295001745224,9.367050170898438,-3.246000051498413
1770770017455,0.5060179767374361,1.4869500398635864,8.761950492858887,-3.178950071334839
1770770017514,,2.044950008392334,,
1770770017515,,2.69100022315979,9.48900032043457,-2.4630000591278076
1770770017516,,2.8180501461029053,,-3.2100000381469727
1770770017517,1.0445744302251283,,9.334050178527832,
1770770017566,,2.101950168609619,,
1770770017567,,,9.351000785827637,-2.272050142288208
1770770017575,0.5862415796256751,,,
1770770017576,,2.0350501537323,9.832050323486328,-2.3550000190734863
1770770017596,,2.7199501991271973,9.310050010681152,-2.896050214767456
1770770017619,,2.782050132751465,,
1770770017620,,,9.568050384521484,-3.0900001525878906
1770770017637,0.5862415796256751,,,
1770770017638,,2.623950242996216,9.625950813293457,-3.109950065612793
1770770017672,,2.064000129699707,,
1770770017673,,,8.950950622558594,-3.1120500564575195
1770770017713,,2.0209500789642334,,
1770770017714,,,8.914950370788574,-2.959050178527832
1770770017719,1.138302725207751,,,
1770770017720,,2.2800002098083496,8.995950698852539,-3.4420502185821533
1770770017785,1.1751407640428642,,,
1770770017787,,2.4780001640319824,,
1770770017788,,2.215050220489502,,
1770770017789,,1.9870500564575195,8.802000045776367,-3.0420000553131104
1770770017790,,,9.382050514221191,
1770770017839,0.9358629556815552,,,
1770770017841,,2.1499500274658203,9.268950462341309,-3.6670501232147217
1770770017864,,1.924950122833252,,-3.2149500846862793
1770770017865,,,8.695050239562988,
1770770017894,,1.8630000352859497,,
1770770017895,,,9.700050354003906,-3.037950038909912
1770770017904,0.9358629556815552,,,
1770770017905,,1.741050124168396,9.769950866699219,-3.076050043106079
1770770017931,,1.831950068473816,8.910000801086426,-3.1600501537323
1770770017957,,1.5949500799179077,,
1770770017958,,,9.38895034790039,-3.258000135421753
1770770017982,0.27672575211026,1.9009500741958618,8.890950202941895,-3.496950149536133
1770770018005,,1.9750500917434692,9.17805004119873,-3.3229501247406006
1770770018043,0.8357307320968863,,,
1770770018044,,1.6380001306533813,9.109050750732422,-3.4810502529144287
1770770018065,,1.0150500535964966,,
1770770018066,,,9.454050064086914,-3.6790502071380615
1770770018104,1.0011261916556562,,,
1770770018105,,1.5679501295089722,8.94105052947998,-3.6700501441955566
1770770018142,,1.4730000495910645,,-3.7920002937316895
1770770018143,,,9.199950218200684,
1770770018165,,2.0400002002716064,8.272950172424316,-4.2870001792907715
1770770018207,,1.9990501403808594,9.073050498962402,-4.821000099182129
1770770018234,,1.9060500860214233,7.828050136566162,-5.082000255584717
1770770018244,0.4973344981405324,0.9670500755310059,,
1770770018245,,,7.837050437927246,-4.6080002784729
1770770018267,,0.2970000207424164,,
1770770018268,,,8.749950408935547,-4.540950298309326
1770770018306,1.4814937535854957,,,
1770770018311,,0.0580500029027462,7.852050304412842,-3.7579500675201416
1770770018334,,1.6429500579833984,9.396000862121582,-3.4900500774383545
1770770018369,2.380910045156566,,,
1770770018370,,2.064000129699707,8.934000015258789,-3.6529502868652344
1770770018391,,1.3050000667572021,10.675050735473633,-3.2940001487731934
1770770018429,2.380910045156566,,,
1770770018430,,0.29205000400543213,9.700050354003906,-2.8819501399993896
1770770018431,,,7.16895055770874,
1770770018478,,2.180999994277954,9.22095012664795,-1.0960500240325928
1770770018506,,0.08595000207424164,8.773950576782227,-2.1250500679016113
1770770018508,1.8444425930769692,-1.2649500370025635,,
1770770018509,,,7.489950180053711,-2.880000114440918
1770770018536,,-0.8130000233650208,9.358050346374512,-4.680000305175781
1770770018556,,-0.025050001218914986,7.5360002517700195,-4.294950008392334
1770770018570,1.7782219027376691,,,
1770770018571,,1.0110000371932983,,-4.060050010681152
1770770018572,,,7.380000114440918,
1770770018603,,0.6180000305175781,9.646950721740723,-5.989950180053711
1770770018609,,-0.2770500183105469,,
1770770018610,,,8.500950813293457,-5.1469502449035645
1770770018630,3.5472768144249383,,,
1770770018631,,-1.5100500583648682,8.66295051574707,-5.029950141906738
1770770018667,,-2.1060001850128174,9.336000442504883,-6.007050514221191
1770770018672,,0.24705001711845398,8.452950477600098,-4.276050090789795
1770770018690,3.5472768144249383,-1.3540500402450562,,-4.03095006942749
1770770018691,,,9.003000259399414,
1770770018718,,0.36900001764297485,10.284000396728516,-3.8779501914978027
1770770018748,,0.2160000056028366,10.926000595092773,-1.0000500679016113
1770770018771,2.818220466896907,,,
1770770018772,,-0.09195000678300858,8.613000869750977,-2.209050178527832
1770770018805,,-0.6690000295639038,,-0.8419500589370728
1770770018806,,,10.921050071716309,
1770770018831,,-0.2550000250339508,,
1770770018832,6.236014932043221,,9.504000663757324,-1.7400001287460327
1770770018833,,-2.3239500522613525,6.8460001945495605,0.9690000414848328
1770770018873,,-2.5489501953125,12.207000732421875,0.5190000534057617
1770770018894,3.2303516961770047,5.148000240325928,11.08905029296875,-2.6710500717163086
1770770018918,,2.572050094604492,11.002950668334961,-2.760000228881836
1770770018939,,-2.7240002155303955,5.75700044631958,-4.240050315856934
1770770018954,3.2303516961770047,,,
1770770018955,,-3.496950149536133,9.106050491333008,-4.405050277709961
1770770018996,,-2.0629501342773438,,-2.9440500736236572
1770770018997,,,10.762950897216797,
1770770019036,1.2553349136961154,2.40405011177063,12.79800033569336,-4.273050308227539
1770770019075,,-1.725000023841858,,-4.801950454711914
1770770019076,,,9.397950172424316,
1770770019095,3.2826051366025006,,,
1770770019096,,2.0209500789642334,10.687050819396973,-0.6480000019073486
1770770019117,,3.778050184249878,,-0.6340500116348267
1770770019118,,,10.450050354003906,
1770770019145,,2.8660502433776855,9.613950729370117,-0.7060500383377075
1770770019162,1.4844219802649699,-0.5110500454902649,8.776050567626953,-2.110949993133545
1770770019215,,-0.8869500160217285,,
1770770019216,,0.22800001502037048,8.98905086517334,-1.990950107574463
1770770019217,1.4844219802649699,1.4250000715255737,9.136950492858887,-0.9709500670433044
1770770019269,,4.870050430297852,,
1770770019270,,-1.2250500917434692,10.32300090789795,-4.703999996185303
1770770019298,2.4396356860981907,,,
1770770019299,,-5.094000339508057,7.1260504722595215,-1.812000036239624
1770770019322,,3.6469502449035645,9.046950340270996,-4.450050354003906
1770770019343,,4.027050018310547,8.110050201416016,-3.873000144958496
1770770019359,0.7943853868935428,-0.5710500478744507,,
1770770019360,,,9.38895034790039,-4.033950328826904
1770770019386,,-3.484950065612793,,
1770770019387,,,13.52595043182373,-3.394050121307373
1770770019412,,-2.2139999866485596,7.701000213623047,-2.6929500102996826
1770770019420,2.9333557763830562,,,
1770770019421,,-1.443000078201294,12.078001022338867,-3.076050043106079
1770770019477,,-0.07800000160932541,,
1770770019478,,,9.082050323486328,-4.671000003814697
1770770019479,,0.8760000467300415,9.643050193786621,-6.730050086975098
1770770019480,2.9333557763830562,,,
1770770019519,,1.390950083732605,8.68005084991455,-4.39995002746582
1770770019544,,1.374000072479248,7.569000244140625,-6.462000370025635
1770770019562,1.4169955526321172,,,
1770770019563,,0.3330000042915344,7.7440505027771,-5.0560503005981445
1770770019599,,0.08400000631809235,,
1770770019600,,,7.70805025100708,-4.335000038146973
1770770019612,,-2.556000232696533,9.172950744628906,-3.696000099182129
1770770019622,2.257167314790108,,,
1770770019623,,-1.075950026512146,,
1770770019624,,,7.990950584411621,-2.290950059890747
1770770019657,,-2.0910000801086426,,
1770770019658,,,9.394050598144531,-3.4020001888275146
1770770019679,,-1.7179501056671143,,-2.451000213623047
1770770019680,,,7.7659502029418945,
1770770019685,1.4576539046360366,-1.8570001125335693,8.187000274658203,-2.158950090408325
1770770019710,,0.25200000405311584,,
1770770019711,,,9.030000686645508,-3.4230000972747803
1770770019743,,1.1209501028060913,,
1770770019744,,,9.571050643920898,-2.650050163269043
1770770019765,,-0.09000000357627869,,
1770770019766,,,8.37405014038086,-4.126950263977051
1770770019813,,-0.6409500241279602,,-3.409050226211548
1770770019814,,,7.5169501304626465,
1770770019825,2.109168035455765,,,
1770770019826,,-1.6170001029968262,7.180950164794922,-5.125050067901611
1770770019875,,5.48805046081543,,
1770770019876,,-3.3100502490997314,22.240951538085938,0.6100500226020813
1770770019885,9.485441999417656,,,
1770770019886,,-7.960050582885742,5.626950263977051,-9.71505069732666
1770770019921,,-3.1930501461029053,,
1770770019922,,,6.601950168609619,-7.6870503425598145
1770770019937,,7.887000560760498,,
1770770019947,7.748847875787704,,,
1770770019948,,6.631950378417969,14.029050827026367,-4.242000102996826
1770770019986,,4.489050388336182,6.700050354003906,-6.238950252532959
1770770020006,7.748847875787704,,,
1770770020007,,2.493000030517578,1.686000108718872,-2.4220499992370605
1770770020040,,-2.805000066757202,,-9.766050338745117
1770770020041,,,9.22800064086914,
1770770020083,,-4.909950256347656,3.942000150680542,-6.895050525665283
1770770020089,2.463765581102035,-1.1910001039505005,8.356950759887695,-3.466050148010254
1770770020121,,-0.8269500136375427,14.569951057434082,-1.4170501232147217
1770770020149,7.65775007227538,,,
1770770020150,,4.309950351715088,,
1770770020151,,3.418950080871582,14.182050704956055,0.5100000500679016
1770770020207,,-0.0799500048160553,8.002950668334961,-1.7299500703811646
1770770020209,0.9435360823960386,,,
1770770020210,,-0.9570000171661377,7.945050239562988,-3.6310501098632812
1770770020260,,2.3590500354766846,,-3.9120001792907715
1770770020261,,,7.9860005378723145,
1770770020271,0.9435360823960386,0.9790500402450562,12.324000358581543,-2.728950023651123
1770770020323,,1.8439500331878662,11.055000305175781,-1.2130500078201294
1770770020351,1.8767374254148173,,,
1770770020352,,-0.48705002665519714,7.854000568389893,-2.53695011138916
1770770020371,,1.1040000915527344,8.584050178527832,-1.8169500827789307
1770770020413,6.34233490894071,,,
1770770020414,,8.47605037689209,,-10.537050247192383
1770770020415,,,6.331050395965576,-7.125000476837158
1770770020473,2.787351281000708,,,
1770770020475,,2.517000198364258,9.547050476074219,-9.142950057983398
1770770020476,,,9.790950775146484,
1770770020525,,3.189000129699707,10.111950874328613,-1.0770000219345093
1770770020541,2.787351281000708,4.225950241088867,11.544000625610352,-1.6800000667572021
1770770020558,,1.683000087738037,10.27500057220459,-0.45705002546310425
1770770020589,,1.3120501041412354,,-2.707050085067749
1770770020590,,,10.462050437927246,
1770770020616,3.9306743740159775,,,
1770770020617,,0.06705000251531601,10.456950187683105,-3.4260001182556152
1770770020652,,-2.557950019836426,9.850950241088867,-4.929000377655029
1770770020675,0.835459813330051,,,
1770770020676,,-4.170000076293945,9.268950462341309,-3.706050157546997
1770770020700,,-2.1820499897003174,9.396000862121582,-2.9280002117156982
1770770020722,,-1.2919501066207886,,
1770770020723,,,7.689000129699707,-1.7040001153945923
1770770020736,4.342934291735151,,,
1770770020737,,-2.0749499797821045,,-2.4100501537323
1770770020738,,,9.95895004272461,
1770770020755,,-1.9429501295089722,7.153050422668457,-2.947050094604492
1770770020796,4.342934291735151,,,
1770770020797,,-3.2790000438690186,8.232000350952148,-1.5769500732421875
1770770020831,,-3.7669501304626465,8.623050689697266,-2.311950206756592
1770770020865,,-3.784050226211548,8.107950210571289,-2.3959500789642334
1770770020878,1.2494915404932116,-1.495050072669983,10.003950119018555,-2.7720000743865967
1770770020919,,-1.665000081062317,,
1770770020920,,,9.316950798034668,-3.6670501232147217
1770770020939,0.7540042003190804,,,
1770770020940,,-2.8980002403259277,,
1770770020941,,,9.520950317382812,-3.4330501556396484
1770770020977,,-2.628000020980835,,
1770770020978,,,6.279000282287598,-3.9120001792907715
1770770020999,1.1610291661748025,,,
1770770021000,,-2.118000030517578,,
1770770021001,,,10.248000144958496,-2.7739500999450684
1770770021024,,-1.894950032234192,10.086000442504883,-2.680950164794922
1770770021060,1.1610291661748025,,,
1770770021061,,-1.1479500532150269,,
1770770021062,,,8.62695026397705,-3.0400500297546387
1770770021087,,-1.384950041770935,,
1770770021088,,,7.842000484466553,-3.198000192642212
1770770021123,,-2.2950000762939453,,-3.9019501209259033
1770770021124,,,9.427050590515137,
1770770021139,0.7856383480494914,,,
1770770021140,,-1.2130500078201294,9.445950508117676,-3.4930500984191895
1770770021196,,-1.6009501218795776,9.304950714111328,-4.668000221252441
1770770021202,1.13947258829018,,,
1770770021203,,-1.1119500398635864,7.9069504737854,-3.6820502281188965
1770770021224,,-0.7699500322341919,,-3.9430501461029053
1770770021225,,,10.099950790405273,
1770770021249,,-0.05595000088214874,8.413949966430664,-4.285050392150879
1770770021262,1.444433161292064,,,
1770770021263,,-0.43905001878738403,10.653000831604004,-3.9430501461029053
1770770021292,,-0.32895001769065857,,-5.254950046539307
1770770021293,,,7.5859503746032715,
1770770021304,,-1.0380001068115234,7.299000263214111,-4.623000144958496
1770770021322,1.444433161292064,,,
1770770021323,,-1.749000072479248,8.580000877380371,-5.0560503005981445
1770770021358,,-1.1820000410079956,7.825050354003906,-5.527950286865234
1770770021406,0.5849066248979817,-0.8149500489234924,,
1770770021407,,-0.31005001068115234,10.545000076293945,-5.451000213623047
1770770021426,,-1.0210500955581665,9.160950660705566,-4.302000045776367
1770770021465,1.548052715143223,-0.42000001668930054,,
1770770021466,,-0.7720500230789185,8.223000526428223,-4.084050178527832
1770770021494,,-1.4470500946044922,10.975950241088867,-3.0109500885009766
1770770021524,,-2.110949993133545,9.379050254821777,-2.0460000038146973
1770770021525,1.2417485643213035,-2.5249500274658203,,-2.7019500732421875
1770770021561,,-1.4710500240325928,7.31505012512207,-2.4250500202178955
1770770021580,,-1.2850500345230103,7.105050563812256,-3.2440502643585205
1770770021587,1.2417485643213035,-1.1910001039505005,8.92905044555664,-2.800950050354004
1770770021630,,-0.4990500211715698,5.428950309753418,-4.165050029754639
1770770021631,,,10.777950286865234,
1770770021668,5.943756661877674,,,
1770770021673,,-1.9450501203536987,,
1770770021674,,-2.7520501613616943,9.777000427246094,-5.2759504318237305
1770770021691,,-1.3369500637054443,8.848050117492676,-3.7270500659942627
1770770021726,,-0.30300000309944153,8.97195053100586,-3.394050121307373
1770770021731,0.9678296054588518,,,
1770770021732,,-0.6859500408172607,8.058000564575195,-3.7420501708984375
1770770021763,,-0.36000001430511475,9.1399507522583,-2.6070001125335693
1770770021790,0.9514312390525713,0.016950000077486038,11.608050346374512,-3.9810001850128174
1770770021829,,0.22800001502037048,,-3.556950092315674
1770770021830,,,9.075000762939453,
1770770021849,0.9514312390525713,-0.9040500521659851,8.260950088500977,-2.640000104904175
1770770021897,,-0.16200000047683716,,
1770770021898,,-0.820050060749054,9.231000900268555,-4.450050354003906
1770770021911,,-0.7510500550270081,6.978000164031982,-4.138950347900391
1770770021931,0.6147440091462124,-0.7270500063896179,10.900050163269043,-3.973950147628784
1770770021965,,-0.5850000381469727,8.199000358581543,-4.189050197601318
1770770021991,1.6099754620690203,1.3240500688552856,,-5.161050319671631
1770770021992,,,9.232950210571289,-4.857000350952148
1770770022021,,-0.043950002640485764,11.046000480651855,-6.046950340270996
1770770022052,0.6530170050228044,,,
1770770022053,,-1.5019500255584717,7.062000274658203,-5.857950210571289
1770770022073,,-1.5810000896453857,,-4.531949996948242
1770770022074,,,8.476950645446777,
1770770022097,,-1.9840500354766846,,
1770770022098,,,9.778950691223145,-3.864000082015991
1770770022113,0.6530170050228044,-1.2060000896453857,7.7659502029418945,-4.945950031280518
1770770022166,,0.04305000230669975,,-4.43595027923584
1770770022167,,,6.468000411987305,
1770770022186,,-0.6360000371932983,,-3.6409502029418945
1770770022187,,,9.231000900268555,
1770770022201,4.394236535256518,,,
1770770022202,,-1.9290001392364502,11.161050796508789,0.6370500326156616
1770770022232,,-2.367000102996826,11.235000610351562,-2.0250000953674316
1770770022244,,-3.0010502338409424,9.159000396728516,-2.722050189971924
1770770022253,0.9681131977127793,-2.0119500160217285,,
1770770022254,,,8.830950736999512,-2.1730501651763916
1770770022301,,-0.8700000643730164,9.652050018310547,-3.6409502029418945
1770770022302,,,8.138999938964844,
1770770022314,2.2529248194978835,-0.8700000643730164,,
1770770022315,,,7.567050457000732,-3.6120002269744873
1770770022349,,-1.8540000915527344,9.621000289916992,-3.3990001678466797
1770770022367,,-0.6499500274658203,7.52400016784668,-3.7320001125335693
1770770022383,2.2529248194978835,-1.7130000591278076,,
1770770022384,,,10.675050735473633,-2.635050058364868
1770770022412,,-1.4449501037597656,8.52495002746582,-2.4559500217437744
1770770022435,,-1.3039500713348389,12.066000938415527,-3.3510000705718994
1770770022456,1.0555957415666508,-1.240950107574463,,
1770770022457,,,8.140950202941895,-2.8129501342773438
1770770022505,,-0.9469500184059143,,
1770770022506,,,10.141050338745117,-3.796950101852417
1770770022521,1.6706217409067157,,,
1770770022522,,-0.4230000078678131,9.919950485229492,-4.762050151824951
1770770022568,,-0.5160000324249268,8.938950538635254,-4.843050003051758
1770770022577,0.787769920775194,,,
1770770022578,,-1.396950125694275,9.396000862121582,-4.4070000648498535
1770770022628,,-1.7800500392913818,8.413949966430664,-4.339950084686279
1770770022646,0.787769920775194,,,
1770770022647,,-0.3750000298023224,7.7059502601623535,-5.367000102996826
1770770022680,,-2.0220000743865967,7.7749505043029785,-4.965000152587891
1770770022701,,-2.089050054550171,,-4.6870503425598145
1770770022702,,,9.5110502243042,
1770770022719,1.2284549764876214,,,
1770770022720,,-2.4870002269744873,9.834000587463379,-4.584000110626221
1770770022772,,-2.2950000762939453,7.119000434875488,-4.708950042724609
1770770022780,1.19319563770961,,,
1770770022781,,-1.7280000448226929,8.764050483703613,-2.511000156402588
1770770022835,,-1.423050045967102,,
1770770022836,,-0.18105000257492065,,-2.1469500064849854
1770770022837,,,10.162050247192383,
1770770022841,1.9313954813953043,-0.9330000281333923,,
1770770022842,,,10.987950325012207,-1.6080000400543213
1770770022899,,-0.9130500555038452,10.414050102233887,-2.182950019836426
1770770022919,,0.5839500427246094,,-4.072050094604492
1770770022920,,,7.845000267028809,
1770770022938,,-0.23100000619888306,9.97800064086914,-4.303950309753418
1770770022955,,-0.8370000123977661,8.11500072479248,-4.984050273895264
1770770022972,,-1.2370500564575195,9.43005084991455,-4.240050315856934
1770770022987,0.9740686541140472,-0.9919500350952148,9.031949996948242,-4.510050296783447
1770770023008,,-0.7870500087738037,,-3.6480002403259277
1770770023009,,,9.784050941467285,
1770770023036,,0.12195000797510147,7.926000595092773,-2.9440500736236572
1770770023047,2.342107782413294,-1.102950096130371,11.446050643920898,-2.2380001544952393
1770770023063,,-1.0380001068115234,10.878000259399414,-4.090950012207031
1770770023105,,-0.21000000834465027,8.311050415039062,-3.517050266265869
1770770023106,1.0673543886132801,,,
1770770023129,,-0.43695002794265747,6.967950344085693,-3.6030001640319824
1770770023165,,-0.9300000667572021,,
1770770023166,,-0.5610000491142273,,
1770770023167,,,,-3.358950138092041
1770770023168,,,9.015000343322754,
1770770023229,,-1.0950000286102295,10.248000144958496,-3.7540502548217773
1770770023260,1.0949667565860457,-0.05595000088214874,8.93595027923584,-5.025000095367432
1770770023283,,-1.13100004196167,7.699050426483154,-3.888000249862671
1770770023305,,0.5869500041007996,8.304000854492188,-4.173000335693359
1770770023307,1.9110114244711434,,,
1770770023311,,0.13905000686645508,10.732050895690918,-3.409050226211548
1770770023329,,0.5629500150680542,9.552000045776367,-2.4679501056671143
1770770023368,2.6769659607881655,,,
1770770023369,,-0.5230500102043152,10.699050903320312,-2.401050090789795
1770770023394,,0.3330000042915344,5.644050121307373,-1.990950107574463
1770770023429,2.6769659607881655,-0.9250500202178955,,
1770770023430,,-1.5289500951766968,8.479050636291504,-3.0109500885009766
1770770023451,,-3.4489500522613525,14.67495059967041,-4.369050025939941
1770770023504,,-1.9330500364303589,7.4569501876831055,-6.010950088500977
1770770023509,2.408320638321765,,,
1770770023510,,-2.050950050354004,8.443050384521484,-3.6630001068115234
1770770023560,,-2.0220000743865967,,
1770770023561,,-2.6230502128601074,9.20205020904541,-2.5039501190185547
1770770023571,2.126292789125112,-2.1610500812530518,,
1770770023572,,,11.079000473022461,-3.4609501361846924
1770770023613,,-0.5419500470161438,,-2.9920501708984375
1770770023614,,,6.067950248718262,-3.8800501823425293
1770770023631,0.9658387030999969,0.27105000615119934,,-4.0819501876831055
1770770023632,,,9.082050323486328,
1770770023670,,-0.6310500502586365,10.32300090789795,-3.955050230026245
1770770023692,0.9658387030999969,,,
1770770023693,,-0.8509500622749329,8.10105037689209,-6.097950458526611
1770770023726,,-1.4110500812530518,,-5.563950061798096
1770770023727,,,7.42995023727417,
1770770023773,0.9858876368371876,-1.2439500093460083,,
1770770023774,,-0.8010000586509705,,-5.724000453948975
1770770023781,,,9.745950698852539,
1770770023841,0.5605182706864928,,,
1770770023842,,-1.3320000171661377,,
1770770023843,,-1.2439500093460083,7.879950523376465,-2.559000015258789
1770770023844,,,8.557950019836426,
1770770023891,,-1.3920000791549683,,-2.9659502506256104
1770770023892,,,7.464000225067139,
1770770023896,3.458900282627577,-1.8160500526428223,11.64900016784668,-0.4159500300884247
1770770023937,,-1.6770000457763672,,
1770770023945,,-2.089050054550171,9.496950149536133,-3.106950044631958
1770770023956,3.458900282627577,-1.3399500846862793,8.09595012664795,-3.865950107574463
1770770024006,,-1.7320500612258911,11.725950241088867,-3.1330502033233643
1770770024038,1.1887111510658654,,,
1770770024039,,-1.6990500688552856,,
1770770024040,,,9.681000709533691,-4.591950416564941
1770770024105,1.4776874273608565,,,
1770770024106,,-0.22905001044273376,7.681950569152832,-4.350000381469727
1770770024132,,0.2659500241279602,,-2.5320000648498535
1770770024133,,,9.541950225830078,
1770770024159,2.741347137970559,,,
1770770024160,,0.022050000727176666,,
1770770024162,,,9.340950012207031,-3.696000099182129
1770770024219,2.741347137970559,,,
1770770024220,,0.8500500321388245,8.425950050354004,-3.687000274658203
1770770024221,,,10.255950927734375,
1770770024245,,1.6000500917434692,,-4.0219502449035645
1770770024246,,,9.310050010681152,
1770770024274,,0.8449500203132629,8.797050476074219,-4.294950008392334
1770770024300,2.3190285569341262,,,
1770770024301,,0.5010000467300415,7.519050121307373,-3.2629501819610596
1770770024329,,-0.778950035572052,,
1770770024330,,,10.279950141906738,-3.9160501956939697
1770770024363,1.425753574886586,0.6420000195503235,8.455050468444824,-3.307950258255005
1770770024385,,-0.6690000295639038,,
1770770024386,,,9.025050163269043,-1.8360000848770142
1770770024421,2.7621106594051956,,,
1770770024422,,-0.8059500455856323,7.780050277709961,-2.5879502296447754
1770770024446,,-2.557950019836426,,-4.783050060272217
1770770024447,,,7.7149505615234375,
1770770024483,,-2.11995005607605,,-4.201050281524658
1770770024484,2.7621106594051956,,10.845000267028809,
1770770024515,,-1.1220000982284546,8.922000885009766,-3.390000104904175
1770770024535,,-0.286050021648407,7.957050323486328,-3.616950273513794
1770770024552,,-1.218000054359436,8.491050720214844,-3.616950273513794
1770770024568,0.6678204957503897,-1.749000072479248,10.725000381469727,-3.6510002613067627
1770770024605,,-1.0260000228881836,10.119000434875488,-3.805950164794922
1770770024631,0.6425840151438581,-0.10905000567436218,9.019950866699219,-3.0210001468658447
1770770024649,,-0.05895000323653221,,
1770770024650,,,10.423050880432129,-3.699000120162964
1770770024686,1.8329093471738518,,,
1770770024687,,-0.1380000114440918,7.609950542449951,-3.427950143814087
1770770024688,,,9.853050231933594,
1770770024713,,-0.8490000367164612,,
1770770024714,,,6.832050323486328,-6.289050102233887
1770770024733,,-0.3049500286579132,9.559050559997559,-3.2119500637054443
1770770024745,1.8329093471738518,,,
1770770024746,,-0.6880500316619873,7.950000286102295,-4.090950012207031
1770770024773,,-2.1850500106811523,11.062050819396973,-3.6310501098632812
1770770024826,,-1.6800000667572021,8.235000610351562,-4.41195011138916
1770770024827,1.502628249091658,,,
1770770024828,,-2.593950033187866,7.294050216674805,-3.2410502433776855
1770770024848,,-3.277050256729126,,-4.361999988555908
1770770024849,,,9.11400032043457,
1770770024880,,-3.2980501651763916,7.444950580596924,-3.6150002479553223
1770770024888,1.7190360784866598,,,
1770770024889,,-2.0749499797821045,10.447050094604492,-3.604950189590454
1770770024918,,-1.5289500951766968,8.98905086517334,-3.394050121307373
1770770024933,,-0.8869500160217285,7.468950271606445,-3.076050043106079
1770770024948,1.8950614895066678,,,
1770770024949,,-1.2199500799179077,7.452000141143799,-2.7430500984191895
1770770024989,,-1.5340501070022583,8.896050453186035,-2.6550002098083496
1770770025009,1.8950614895066678,-1.3230000734329224,,
1770770025010,,,13.179000854492188,-3.664950132369995
1770770025045,,-0.04005000367760658,,-3.3490500450134277
1770770025047,,,6.970950126647949,
1770770025053,,0.1579500138759613,8.152950286865234,-4.666050434112549
1770770025091,1.4865721653866057,,,
1770770025092,,-0.9690000414848328,11.470050811767578,-3.2890501022338867
1770770025121,,-0.6600000262260437,,-4.339950084686279
1770770025122,,,8.695050239562988,
1770770025135,,-0.8730000257492065,9.25005054473877,-4.06695032119751
1770770025151,0.6030946269318292,,,
1770770025152,,-0.7840500473976135,9.300000190734863,-3.7390501499176025
1770770025185,,0.04605000093579292,7.561950206756592,-3.888000249862671
1770770025210,,0.16995000839233398,9.396000862121582,-3.787050247192383
1770770025211,2.5207049334484255,-1.1839500665664673,9.492000579833984,-4.5960001945495605
1770770025252,,-0.5899500250816345,8.119950294494629,-4.929000377655029
1770770025271,2.5207049334484255,,,
1770770025272,,-1.0639500617980957,8.656050682067871,-5.209050178527832
1770770025322,,-0.8110500574111938,,
1770770025323,,-0.09495000541210175,9.061050415039062,-5.113950252532959
1770770025339,,-0.05895000323653221,9.166050910949707,-4.141050338745117
1770770025356,0.7227359624665244,1.0900501012802124,9.15195083618164,-5.4150004386901855
1770770025380,,1.3270500898361206,8.272950172424316,-3.5880000591278076
1770770025416,1.697454970918492,-0.031950000673532486,9.634950637817383,-2.2039501667022705
1770770025417,,,9.754950523376465,
1770770025453,,-2.296950101852417,10.468950271606445,-3.05400013923645
1770770025476,2.2474092827162804,,,
1770770025477,,-1.5169501304626465,9.025050163269043,-3.3319501876831055
1770770025521,,-1.9170000553131104,10.51200008392334,-2.2950000762939453
1770770025522,,,9.397950172424316,
1770770025535,2.2474092827162804,,,
1770770025536,,-1.8400501012802124,9.039000511169434,-2.82705020904541
1770770025588,,-0.44700002670288086,7.231950283050537,-4.41195011138916
1770770025617,0.31162096607536777,-0.2050500065088272,,
1770770025618,,-1.117050051689148,9.427050590515137,-3.409050226211548
1770770025649,,-1.3920000791549683,,
1770770025650,,,7.258050441741943,-3.394050121307373
1770770025679,2.154303847273112,-2.257050037384033,,-2.1850500106811523
1770770025680,,,9.001049995422363,
1770770025707,,-2.946000099182129,8.344950675964355,-1.9290001392364502
1770770025723,,-2.8120501041412354,,
1770770025724,,,7.248000144958496,-4.009950160980225
1770770025740,1.213553378112776,,,
1770770025741,,-2.2900500297546387,10.737000465393066,-3.787050247192383
1770770025760,,-3.0520501136779785,11.152950286865234,-3.796950101852417
1770770025790,,-2.9920501708984375,9.058050155639648,-5.005950450897217
1770770025801,1.213553378112776,-2.416950225830078,9.541950225830078,-4.390050411224365
1770770025857,,-3.046950101852417,7.1860504150390625,-3.9400501251220703
1770770025869,,-3.384000062942505,,-4.117949962615967
1770770025870,,,7.110000133514404,
1770770025882,,-2.7520501613616943,,
1770770025883,2.644319196169492,,10.25100040435791,-1.3540500402450562
1770770025923,,-2.809950113296509,,-1.4910000562667847
1770770025924,,,10.31505012512207,
1770770025941,0.8293054552393541,,,
1770770025942,,-2.1030001640319824,10.039950370788574,-2.4870002269744873
1770770025983,,-1.665000081062317,,
1770770025984,,,9.769950866699219,-3.385050058364868
1770770025990,,-0.906000018119812,9.292950630187988,-3.6190502643585205
1770770026002,2.5057728872143588,-1.0210500955581665,,
1770770026003,,,7.885050296783447,-5.130000114440918
1770770026036,,-1.5649501085281372,7.483050346374512,-4.1579999923706055
1770770026057,,-2.142000198364258,,-5.331000328063965
1770770026058,,,8.533950805664062,
1770770026069,2.5057728872143588,-2.1630001068115234,,
1770770026070,,,11.544000625610352,-3.646050214767456
1770770026099,,-1.0950000286102295,9.592050552368164,-5.38200044631958
1770770026125,,0.7300500273704529,8.692049980163574,-5.260050296783447
1770770026144,1.345958004581172,0.5629500150680542,9.75,-3.4399502277374268
1770770026194,,0.6799500584602356,,
1770770026195,,,7.785000324249268,-3.0139501094818115
1770770026211,1.277446544372383,-1.1959500312805176,,
1770770026212,,,8.118000030517578,-3.4450502395629883
1770770026255,,-0.7510500550270081,8.431050300598145,-4.108050346374512
1770770026266,1.8885765643366361,-0.6409500241279602,9.832050323486328,-4.4070000648498535
1770770026310,,-0.7030500173568726,6.420000076293945,-5.6260504722595215
1770770026337,1.8885765643366361,-2.9920501708984375,10.663050651550293,-2.857950210571289
1770770026371,,-2.7360000610351562,9.372000694274902,-2.2930500507354736
1770770026394,,-2.379000186920166,11.56095027923584,-2.5729501247406006
1770770026407,2.847922648879612,,,
1770770026408,,-1.6560001373291016,8.509950637817383,-3.718050241470337
1770770026463,,-0.5730000138282776,7.770000457763672,-3.598050117492676
1770770026464,,,11.11305046081543,
1770770026474,,-0.35100001096725464,,
1770770026475,1.7014972012183223,,7.488000392913818,-4.009950160980225
1770770026529,3.6839379385443487,-1.1500500440597534,,
1770770026530,,-2.098950147628784,9.41295051574707,-3.574050188064575
1770770026585,,-1.4140501022338867,,
1770770026586,,-1.7950501441955566,,-4.741950035095215
1770770026588,,,7.915950298309326,
1770770026595,3.6839379385443487,,8.818950653076172,
1770770026596,,-1.6990500688552856,,-5.041950225830078
1770770026639,,-1.7680500745773315,,
1770770026640,,-2.2710001468658447,6.669000148773193,-4.588950157165527
1770770026668,,-1.8760501146316528,,
1770770026669,,,9.516000747680664,-4.077000141143799
1770770026671,1.2600929012563926,-1.6920000314712524,7.387050151824951,-3.763050079345703
1770770026695,,-1.9500000476837158,,-4.426050186157227
1770770026696,,,8.25195026397705,
1770770026732,1.503175315094126,-1.7509500980377197,,
1770770026733,,,10.53600025177002,-2.7430500984191895
1770770026750,,-1.9240500926971436,9.600000381469727,-2.1850500106811523
1770770026791,1.795814134652994,,,
1770770026792,,-1.894950032234192,,-2.5320000648498535
1770770026793,,,9.870000839233398,
1770770026854,1.795814134652994,-1.1980500221252441,,-3.1120500564575195
1770770026855,,,6.493950366973877,
1770770026914,,-0.5040000081062317,,
1770770026915,,-0.5040000081062317,9.745950698852539,-4.489050388336182
1770770026933,0.6074271002541657,,,
1770770026934,,-1.27305006980896,9.12600040435791,-3.019050121307373
1770770026970,,-1.4590500593185425,10.62405014038086,-1.5460500717163086
1770770026994,0.7112939800214181,,,
1770770026995,,-1.0690500736236572,8.532000541687012,-3.7510502338409424
1770770027027,,-0.17400000989437103,7.852050304412842,-3.3229501247406006
1770770027055,0.5686823133916945,,,
1770770027056,,-0.37005001306533813,8.344950675964355,-3.0829501152038574
1770770027079,,-1.4640001058578491,,-3.95205020904541
1770770027080,,,9.23805046081543,
1770770027116,0.5686823133916945,,,
1770770027117,,-1.7800500392913818,9.403050422668457,-3.5050501823425293
1770770027136,,-1.0069500207901,9.456000328063965,-2.2069501876831055
1770770027190,,-1.7779500484466553,,
1770770027191,,-1.324950098991394,10.087950706481934,-3.5209500789642334
1770770027197,1.4942493673409087,,,
1770770027198,,-0.8130000233650208,9.286050796508789,-2.6260502338409424
1770770027248,,-1.1460000276565552,9.480000495910645,-3.138000249862671
1770770027260,1.9789095125950824,,,
1770770027261,,-0.583050012588501,7.384950160980225,-5.029950141906738
1770770027300,,-1.1820000410079956,,
1770770027301,,-1.2529500722885132,9.808050155639648,-3.061950206756592
1770770027319,0.588621122910066,-1.6030501127243042,,
1770770027320,,,8.665950775146484,-2.4970500469207764
1770770027340,,-0.7600500583648682,,
1770770027341,,,10.191000938415527,-3.634050130844116
1770770027379,0.588621122910066,,,
1770770027380,,-0.1469999998807907,9.09000015258789,-4.267950057983398
1770770027381,,,8.659049987792969,
1770770027407,,-0.05400000140070915,7.131000518798828,-2.8750500679016113
1770770027461,1.199270638700812,,,
1770770027463,,0.5440500378608704,,-2.6929500102996826
1770770027464,,,6.037050247192383,
1770770027524,2.103864805519491,,,
1770770027525,,0.2950500249862671,,
1770770027526,,-0.3559500277042389,,-3.198000192642212
1770770027527,,,10.267950057983398,-2.26200008392334
1770770027542,,-0.46800002455711365,,
1770770027543,,,9.868050575256348,-2.200050115585327
1770770027579,,-0.973050057888031,9.030000686645508,-2.7649500370025635
1770770027581,1.3817220580283467,,,
1770770027582,,-1.8709501028060913,10.039950370788574,-2.302950143814087
1770770027605,,-2.035950183868408,10.653000831604004,-3.406050205230713
1770770027630,,-1.9090501070022583,8.37405014038086,-2.887050151824951
1770770027645,,-1.9860000610351562,8.938950538635254,-2.9659502506256104
1770770027677,,-2.8720500469207764,9.298050880432129,-3.559950113296509
1770770027691,,-2.946000099182129,10.488000869750977,-2.559000015258789
1770770027724,0.8322696970943235,,,
1770770027725,,-2.1559500694274902,8.059950828552246,-3.145050048828125
1770770027742,,-2.0789999961853027,,
1770770027743,,,8.455050468444824,-2.0970001220703125
1770770027784,9.989227978084418,,,
1770770027785,,-2.278050184249878,7.014000415802002,-2.170950174331665
1770770027806,,-0.8560500144958496,,
1770770027807,,,12.027000427246094,-3.0040502548217773
1770770027848,3.142407115695534,-1.7950501441955566,,-4.074000358581543
1770770027849,,,8.086050033569336,
1770770027874,,-2.3929500579833984,6.693000316619873,-4.029000282287598
1770770027904,3.142407115695534,,,
1770770027905,,-2.9730000495910645,9.003000259399414,-3.469050168991089
1770770027941,,-1.6530001163482666,10.05405044555664,-3.4420502185821533
1770770027960,,-1.4689500331878662,,
1770770027987,0.4408634190067171,,,
1770770027988,,-1.4140501022338867,10.168950080871582,-2.8150501251220703
1770770028007,,-1.3420500755310059,,
1770770028008,,,8.692049980163574,-3.057000160217285
1770770028047,2.6234284192326274,,,
1770770028048,,-1.371000051498413,10.291950225830078,-2.26200008392334
1770770028069,,-0.8779500126838684,,
1770770028070,,,8.295000076293945,-3.526050090789795
1770770028116,1.8051549132804507,-1.1479500532150269,10.873050689697266,-3.20805025100708
1770770028145,,-0.5850000381469727,8.176950454711914,-4.2900004386901855
1770770028169,1.8051549132804507,,,
1770770028170,,-0.1860000044107437,,
1770770028171,,-1.5289500951766968,9.288000106811523,-2.7019500732421875
1770770028210,,-0.6379500031471252,7.693950176239014,-4.951050281524658
1770770028240,,-1.711050033569336,10.045050621032715,-1.7760001420974731
1770770028250,1.577276020381409,,,
1770770028251,,-1.7869501113891602,10.569000244140625,-2.0749499797821045
1770770028277,,-2.239950180053711,,
1770770028278,,,12.481950759887695,-2.7769501209259033
1770770028291,,-1.3900500535964966,8.66295051574707,-3.595950126647949
1770770028311,0.857323504042553,,,
1770770028312,,-1.215000033378601,8.278050422668457,-3.1600501537323
1770770028343,,-1.1069999933242798,,-4.3470001220703125
1770770028344,,,6.243000507354736,
1770770028372,0.3444950093349399,,,
1770770028374,,-1.7610000371932983,,-3.367950201034546
1770770028375,,,10.926000595092773,
1770770028399,,-0.6760500073432922,,
1770770028400,,,9.219000816345215,-3.2100000381469727
1770770028411,,-0.8130000233650208,,-3.559950113296509
1770770028412,,,9.19005012512207,
1770770028431,0.3444950093349399,,,
1770770028432,,-1.6630500555038452,9.442049980163574,-3.639000177383423
1770770028457,,-1.804050087928772,,
1770770028458,,,10.654950141906738,-2.491950035095215
1770770028486,,-2.6329500675201416,9.637950897216797,-3.0640501976013184
1770770028511,,-1.287000060081482,8.019000053405762,-3.982950210571289
1770770028513,1.739964593768258,-1.6579500436782837,8.094000816345215,-2.949000120162964
1770770028546,,-1.5889500379562378,8.302050590515137,-3.4300501346588135
1770770028566,,-0.9640500545501709,9.973050117492676,-2.770050048828125
1770770028572,1.1983326673351093,,,
1770770028573,,-0.04200000315904617,8.716050148010254,-3.8520002365112305
1770770028614,,0.22800001502037048,9.346050262451172,-3.574050188064575
1770770028615,,,8.926950454711914,
1770770028636,1.6941026862366644,,,
1770770028637,,-0.5610000491142273,10.11405086517334,-2.9629502296447754
1770770028676,,-1.3230000734329224,10.699050903320312,-3.457050085067749
1770770028695,1.6941026862366644,-0.21000000834465027,6.529950141906738,-3.766050100326538
1770770028732,,-1.5979501008987427,10.204950332641602,-2.937000036239624
1770770028744,,-1.6290000677108765,8.659049987792969,-3.406050205230713
1770770028777,0.2488768501423725,,,
1770770028778,,-1.4929500818252563,9.364950180053711,-3.948000192642212
1770770028815,,-1.3129500150680542,9.528000831604004,-2.4370501041412354
1770770028838,1.346102363262195,,,
1770770028839,,-1.3950001001358032,10.296000480651855,-3.3030002117156982
1770770028882,,-1.423050045967102,,
1770770028883,,,10.075950622558594,-2.439000129699707
1770770028899,1.6115646281218148,-2.0530500411987305,8.665950775146484,-2.3269500732421875
1770770028945,,-2.4790501594543457,,-2.635050058364868
1770770028946,,,9.874950408935547,
1770770028969,1.6115646281218148,,,
1770770028970,,-2.805000066757202,7.42995023727417,-3.0640501976013184
1770770029007,,-3.2530500888824463,,
1770770029008,,,11.070000648498535,-2.6550002098083496
1770770029041,1.8462794135868676,-2.451000213623047,8.311050415039062,-3.1840500831604004
1770770029042,,,8.641950607299805,
1770770029059,,-2.3959500789642334,9.327000617980957,-2.808000087738037
1770770029085,,-1.8109500408172607,8.434050559997559,-3.7920002937316895
1770770029101,0.3561089587845001,-2.16795015335083,9.127950668334961,-3.4399502277374268
1770770029146,,-1.3729500770568848,8.769000053405762,-3.088050127029419
1770770029166,1.0921919488338734,-1.3780500888824463,7.5360002517700195,-3.1740002632141113
1770770029218,,-1.2850500345230103,8.814000129699707,-2.1229500770568848
1770770029221,1.0921919488338734,-0.921000063419342,7.597950458526611,-3.0450000762939453
1770770029279,,-1.6080000400543213,9.80505084991455,-2.0490000247955322
1770770029287,,-1.5139501094818115,,
1770770029288,,,11.011950492858887,-3.049950122833252
1770770029303,0.7509918806599707,-1.6459500789642334,8.665950775146484,-4.201050281524658
1770770029336,,-1.7749500274658203,9.468000411987305,-3.295950174331665
1770770029346,,-1.555050015449524,,
1770770029347,,,7.368000507354736,-3.6940500736236572
1770770029365,0.6409861314347456,,,
1770770029366,,-1.5289500951766968,9.625950813293457,-3.5089502334594727
1770770029389,,-0.4350000321865082,,-3.5380501747131348
1770770029390,,,7.957050323486328,
1770770029419,,-1.0860000848770142,,
1770770029420,,,12.331050872802734,-2.9040000438690186
1770770029425,2.1220707619074535,0.29205000400543213,8.425950050354004,-4.03095006942749
1770770029445,,1.2310500144958496,7.6080002784729,-3.4020001888275146
1770770029484,2.1220707619074535,,,
1770770029485,,0.5560500025749207,9.738000869750977,-3.6510002613067627
1770770029548,,-0.034950003027915955,,
1770770029549,,,11.308950424194336,-2.884050130844116
1770770029576,1.053585352586266,-0.5760000348091125,9.091950416564941,-3.715050220489502
1770770029610,,-0.697950005531311,9.055950164794922,-3.2890501022338867
1770770029611,,,7.963950157165527,
1770770029628,1.224554666030241,,,
1770770029629,,-1.0600500106811523,9.99000072479248,-2.889000177383423
1770770029670,,-1.194000005722046,10.921050071716309,-2.800950050354004
1770770029688,0.9117208629541176,,,
1770770029689,,-0.9829500317573547,9.427050590515137,-2.884050130844116
1770770029719,,-1.0360500812530518,9.255000114440918,-2.9010000228881836
1770770029748,0.9117208629541176,,,
1770770029749,,-1.807050108909607,8.223000526428223,-2.69100022315979
1770770029792,,-1.9530000686645508,7.758000373840332,-2.9160001277923584
1770770029829,,-1.3680000305175781,,-2.4439501762390137
1770770029830,1.2957645855950644,,9.407999992370605,-3.1330502033233643
1770770029885,,-2.596950054168701,10.213050842285156,-2.2159500122070312
1770770029892,3.6254148574740994,-2.8219501972198486,12.42495059967041,-1.683000087738037
1770770029939,,-2.4049501419067383,,
1770770029940,,,6.985050201416016,-3.6310501098632812
1770770029951,3.07240235933209,,,
1770770029952,,-2.9509501457214355,7.914000511169434,-3.106950044631958
1770770029996,,-3.432000160217285,,
1770770029997,,,8.817000389099121,-3.1999502182006836
1770770030024,3.07240235933209,-2.596950054168701,8.998950004577637,-2.800950050354004
1770770030050,,-2.7240002155303955,,
1770770030051,,,8.06505012512207,-2.8249502182006836
1770770030092,1.6517807743190112,,,
1770770030093,,-2.9220001697540283,10.675050735473633,-2.647050142288208
1770770030149,,-1.4089500904083252,7.945050239562988,-2.8150501251220703
1770770030153,1.2812245064036694,,,
1770770030154,,-0.8940000534057617,8.119950294494629,-3.8179502487182617
1770770030214,0.8790563836615533,-1.4550000429153442,10.177050590515137,-3.283950090408325
1770770030269,,-0.6450000405311584,,
1770770030270,,,9.457950592041016,-3.535950183868408
1770770030281,0.8790563836615533,0.18195000290870667,8.782950401306152,-3.8449501991271973
1770770030298,,-0.06300000101327896,,-3.9979500770568848
1770770030299,,,8.371050834655762,
1770770030331,,-0.6480000019073486,,
1770770030332,,,9.71505069732666,-3.1549501419067383
1770770030349,,-0.1399500072002411,,-3.507000207901001
1770770030350,,,10.485000610351562,
1770770030356,1.0839857496648098,,,
1770770030357,,0.6150000095367432,9.942000389099121,-3.5020501613616943
1770770030379,,0.8740500211715698,8.464950561523438,-4.7470502853393555
1770770030417,1.0049643673439583,,,
1770770030418,,0.6420000195503235,,-2.785950183868408
1770770030419,,,9.006000518798828,
1770770030480,2.2250776727384682,0.13905000686645508,9.466050148010254,-2.596950054168701
1770770030538,2.2250776727384682,,,
1770770030539,,-1.1340000629425049,11.479050636291504,-2.439000129699707
1770770030565,,-0.8850000500679016,9.637950897216797,-3.5430002212524414
1770770030599,,-0.4939500093460083,9.568050384521484,-3.1309502124786377
1770770030619,1.102302302845928,,,
1770770030620,,-0.781950056552887,8.461950302124023,-3.7579500675201416
1770770030658,,-1.1069999933242798,,
1770770030659,,,6.837000370025635,-3.8179502487182617
1770770030682,0.5237411074008627,,,
1770770030683,,-1.537950038909912,8.809050559997559,-3.118950128555298
1770770030712,,-2.5920000076293945,,
1770770030713,,,9.922950744628906,-3.7920002937316895
1770770030741,2.0996376497006057,,,
1770770030742,,-1.8139500617980957,8.428950309753418,-2.9629502296447754
1770770030764,,-0.7480500340461731,9.183000564575195,-3.394050121307373
1770770030801,2.0996376497006057,,,
1770770030802,,-1.01895010471344,9.910950660705566,-3.057000160217285
1770770030824,,-1.0330500602722168,,
1770770030825,,,9.063000679016113,-3.4260001182556152
1770770030874,,-1.0930500030517578,9.801000595092773,-1.599000096321106
1770770030882,0.815859159568021,,,
1770770030883,,-0.7720500230789185,9.324000358581543,-2.959050178527832
1770770030935,,-1.5289500951766968,,-2.1949501037597656
1770770030936,,,9.832050323486328,-2.989950180053711
1770770030944,0.9794981510364944,,,
1770770030945,,-2.0340001583099365,8.314050674438477,-2.7910501956939697
1770770030966,,-1.8859500885009766,,-2.63100004196167
1770770030967,,,9.23805046081543,
1770770030984,,-1.9669500589370728,10.366050720214844,-3.406050205230713
1770770031004,0.598130131762263,,,
1770770031005,,-2.1130499839782715,8.833050727844238,-2.9350502490997314
1770770031034,,-2.496000051498413,,
1770770031035,,,10.201050758361816,-3.8400001525878906
1770770031066,0.598130131762263,-2.68500018119812,10.336950302124023,-3.3820502758026123
1770770031094,,-2.2489500045776367,11.179950714111328,-2.7139501571655273
1770770031147,1.5410414622259716,-1.2850500345230103,7.690950393676758,-3.8299500942230225
1770770031148,,,7.927950382232666,
1770770031168,,-0.4300500154495239,9.540000915527344,-2.868000030517578
1770770031205,,-0.3460500240325928,9.717000007629395,-3.0739500522613525
1770770031207,1.686799363104465,-0.7120500206947327,10.440000534057617,-2.5420501232147217
1770770031236,,-0.7219500541687012,,
1770770031237,,,9.801000595092773,-3.4729502201080322
1770770031259,,-0.31005001068115234,9.013050079345703,-2.986950159072876
1770770031268,1.4152621244131207,,,
1770770031269,,-1.2850500345230103,8.38800048828125,-3.7080001831054688
1770770031303,,-1.2750000953674316,9.075000762939453,-3.724950075149536
1770770031314,,-1.593000054359436,9.145050048828125,-3.0829501152038574
1770770031328,1.4152621244131207,-1.4520000219345093,,
1770770031329,,,9.508950233459473,-3.5089502334594727
1770770031353,,-1.3060500621795654,9.363000869750977,-3.118950128555298
1770770031371,,-0.7579500079154968,8.601000785827637,-3.634050130844116
1770770031410,1.204720714620825,-1.0069500207901,,-2.590050220489502
1770770031411,,,9.442049980163574,
1770770031438,,-1.9860000610351562,10.870950698852539,-2.596950054168701
1770770031471,1.1007342099060717,,,
1770770031472,,-1.3180500268936157,,-2.7550501823425293
1770770031473,,,8.254050254821777,
1770770031505,,-1.440000057220459,9.25200080871582,-2.8650002479553223
1770770031533,1.7903037616917996,-1.8540000915527344,,-2.5759501457214355
1770770031534,,,10.354050636291504,
1770770031557,,-1.4449501037597656,,-2.2759501934051514
1770770031558,,,9.103950500488281,
1770770031577,,-1.6579500436782837,10.497000694274902,-2.2360501289367676
1770770031590,1.7903037616917996,-2.1250500679016113,8.272950172424316,-2.4180002212524414
1770770031646,,-1.9069501161575317,,
1770770031647,,,9.70305061340332,-1.9699500799179077
1770770031683,1.4141117319209418,,,
1770770031684,,-2.130000114440918,7.866000175476074,-2.1130499839782715
1770770031700,,-3.1020002365112305,,-2.6520001888275146
1770770031701,,,8.151000022888184,
1770770031734,0.5478060834370674,-2.8620002269744873,,
1770770031735,,,8.95995044708252,-2.180999994277954
1770770031756,,-1.7389501333236694,10.318050384521484,-2.0680501461029053
1770770031794,1.5757074250841532,-1.749000072479248,,
1770770031795,,,8.946000099182129,-1.8550500869750977
1770770031839,,-3.3600001335144043,8.155950546264648,-1.1460000276565552
1770770031856,,-2.4630000591278076,10.318050384521484,-2.1450002193450928
1770770031915,,-4.4670000076293945,11.488950729370117,-3.8449501991271973
1770770031919,,-0.7939500212669373,8.611050605773926,-0.6630000472068787
1770770031936,1.6881267655217564,-0.031950000673532486,11.761950492858887,-2.4060001373291016
1770770031973,,-2.367000102996826,,
1770770031974,,,8.938950538635254,-3.06600022315979
1770770031977,,-2.2230000495910645,,
1770770031978,,,8.773950576782227,-2.7049500942230225
1770770031997,1.68404260303312,,,
1770770031998,,-2.2519500255584717,9.95895004272461,-2.0179500579833984
1770770032039,,-3.1210501194000244,,
1770770032040,,,8.347050666809082,-3.5050501823425293
1770770032041,,-1.2130500078201294,10.11405086517334,-2.9059500694274902
1770770032057,0.7547634963161632,-1.015950083732605,7.900050163269043,-2.142000198364258
1770770032085,,-2.118000030517578,,-3.636000156402588
1770770032086,,,10.006950378417969,
1770770032109,,-1.8139500617980957,8.42400074005127,-2.9509501457214355
1770770032117,0.7547634963161632,,,
1770770032118,,-0.9420000314712524,9.96405029296875,-2.1040501594543457
1770770032140,,-1.0140000581741333,8.902950286865234,-2.647050142288208
1770770032173,,-1.5100500583648682,,
1770770032174,,,9.78600025177002,-2.551950216293335
1770770032195,,-1.1479500532150269,9.943950653076172,-2.7720000743865967
1770770032199,1.3758693894287233,-0.45900002121925354,,-2.427000045776367
1770770032200,,,8.469000816345215,
1770770032242,,-1.1050500869750977,9.169050216674805,-2.959050178527832
1770770032260,0.9947954280975224,0.022050000727176666,10.28895092010498,-2.86995005607605
1770770032304,,-0.4540500342845917,,
1770770032305,,-0.41505002975463867,9.379050254821777,-3.0810000896453857
1770770032321,1.7126008052811115,-0.6550500392913818,9.160950660705566,-3.1960501670837402
1770770032356,,-0.2770500183105469,10.00200080871582,-2.6710500717163086
1770770032359,,-1.5649501085281372,9.52500057220459,-3.44700026512146
1770770032381,1.7126008052811115,,,
1770770032382,,-0.022950001060962677,,-2.9629502296447754
1770770032383,,,9.372000694274902,
1770770032415,,0.4069500267505646,10.165050506591797,-2.53695011138916
1770770032443,,0.6490500569343567,,
1770770032444,,-0.3720000088214874,9.358050346374512,-2.5420501232147217
1770770032463,2.4042229970308298,-0.31995001435279846,9.232950210571289,-3.7009501457214355
1770770032513,,-0.28905001282691956,,-3.5020501613616943
1770770032514,,,9.601950645446777,-3.7300500869750977
1770770032524,0.8446237490493569,0.3829500079154968,9.211950302124023,-2.6550002098083496
1770770032556,,0.16995000839233398,9.652050018310547,-1.9410001039505005
1770770032577,,0.22500000894069672,,
1770770032578,,,10.318050384521484,-2.2069501876831055
1770770032584,0.9335928561792923,-0.07304999977350235,9.058050155639648,-2.848950147628784
1770770032635,,0.17295001447200775,9.781949996948242,-2.5540502071380615
1770770032648,0.9335928561792923,-0.09195000678300858,9.493950843811035,-3.3730502128601074
1770770032689,,0.6850500106811523,9.46095085144043,-2.3910000324249268
1770770032718,,1.5250500440597534,9.44895076751709,-2.2669501304626465
1770770032725,0.873988316006111,1.3650000095367432,,
1770770032726,,,9.600000381469727,-2.419950008392334
1770770032746,,0.4069500267505646,9.552000045776367,-2.9130001068115234
1770770032781,,1.0009500980377197,,-3.0450000762939453
1770770032782,,,8.659049987792969,
1770770032788,0.9902986584626281,-0.11400000751018524,9.601950645446777,-3.2749502658843994
1770770032847,0.5866902411756384,,,
1770770032848,,0.38100001215934753,,
1770770032850,,,8.946000099182129,-3.4330501556396484
1770770032909,0.5866902411756384,,,
1770770032910,,0.16095000505447388,,-3.0210001468658447
1770770032911,,,9.094050407409668,-2.3170502185821533
1770770032967,,0.19905000925064087,,
1770770032968,,0.547950029373169,9.985050201416016,-2.032050132751465
1770770032986,,0.27300000190734863,9.813000679016113,-1.4359500408172607
1770770033003,1.67281208336916,,,
1770770033004,,1.0420500040054321,10.030950546264648,-1.1530500650405884
1770770033021,,1.5559500455856323,,-1.6630500555038452
1770770033022,,,10.641000747680664,
1770770033050,0.6578093123188844,,,
1770770033051,,1.3890000581741333,9.826950073242188,-2.1949501037597656
1770770033074,,0.19395001232624054,,
1770770033075,,,9.21405029296875,-3.007050037384033
1770770033111,0.658742915374184,,,
1770770033112,,-0.10395000129938126,,-2.8750500679016113
1770770033113,,,9.348000526428223,
1770770033131,,0.8910000324249268,,-2.896050214767456
1770770033132,,,9.784050941467285,
1770770033159,,1.1179500818252563,9.352950096130371,-2.680950164794922
1770770033171,,0.20400001108646393,,
1770770033173,,,8.857050895690918,-2.86995005607605
1770770033244,,0.14400000870227814,,
1770770033245,,,9.175950050354004,-3.1429500579833984
1770770033263,0.5002437235959402,-0.3559500277042389,9.010950088500977,-2.6950502395629883
1770770033297,,-0.5260500311851501,8.842950820922852,-2.8650002479553223
1770770033316,1.079595033520147,-1.29705011844635,10.198050498962402,-2.788950204849243
1770770033350,,-1.2649500370025635,9.159000396728516,-2.4750001430511475
1770770033360,,-1.0879501104354858,8.910000801086426,-2.4100501537323
1770770033373,0.26526024963285766,,,
1770770033374,,-0.10905000567436218,9.985050201416016,-2.805000066757202
1770770033405,,0.2850000262260437,,-2.640000104904175
1770770033406,,,7.093050479888916,
1770770033437,0.26526024963285766,1.3309500217437744,,-3.136050224304199
1770770033438,,,11.71095085144043,
1770770033469,,0.2659500241279602,8.67495059967041,-3.28695011138916
1770770033519,0.573001375582843,-0.19305001199245453,9.997050285339355,-4.029000282287598
1770770033520,,,9.327000617980957,
1770770033559,,-0.8730000257492065,,
1770770033560,,-0.3079500198364258,9.231000900268555,-2.77905011177063
1770770033578,0.7052293652244243,-0.5400000214576721,,
1770770033579,,,9.172950744628906,-2.5540502071380615
1770770033625,,-0.48000001907348633,,-2.719050168991089
1770770033626,,,9.544950485229492,-3.129000186920166
1770770033640,0.7466332447357422,-0.25995001196861267,,-2.430000066757202
1770770033641,,,9.8100004196167,
1770770033681,,-0.4900500178337097,,
1770770033682,,-2.2210500240325928,10.596000671386719,-2.430000066757202
1770770033700,0.7466332447357422,-2.4220499992370605,10.141050338745117,-2.7840001583099365
1770770033735,,-3.325050115585327,10.20300006866455,-2.785950183868408
1770770033771,,-2.8219501972198486,10.240950584411621,-3.1999502182006836
1770770033789,0.7346142318323241,-0.781950056552887,,-3.547950267791748
1770770033790,,,9.670950889587402,
1770770033841,1.9566968072435993,,,
1770770033842,,-0.15900000929832458,,-3.7890002727508545
1770770033843,,,8.299050331115723,-3.756000280380249
1770770033900,0.669931706392533,,,
1770770033901,,-0.5760000348091125,,-3.5239500999450684
1770770033902,,,8.236949920654297,-3.6700501441955566
1770770033923,,-1.6800000667572021,,
1770770033924,,,9.22800064086914,-3.624000072479248
1770770033955,,-1.8379501104354858,,
1770770033956,,,8.970000267028809,-3.507000207901001
1770770033969,0.669931706392533,-1.1149500608444214,8.63895034790039,-3.1530001163482666
1770770034002,,-1.3129500150680542,,
1770770034003,,,9.070050239562988,-3.178950071334839
1770770034020,,-1.3590000867843628,9.57300090789795,-3.4710001945495605
1770770034043,0.3530958117178312,,,
1770770034044,,-0.6169500350952148,8.854949951171875,-3.2410502433776855
1770770034063,,-0.47805002331733704,9.292950630187988,-3.4489500522613525
1770770034103,0.8762008396893491,,,
1770770034105,,-0.6840000152587891,9.303000450134277,-3.847050189971924
1770770034125,,-0.23100000619888306,,
1770770034126,,,8.296950340270996,-4.126950263977051
1770770034161,,-0.022950001060962677,9.310050010681152,-4.588950157165527
1770770034164,1.386991189333236,,,
1770770034165,,0.3859500288963318,,
1770770034166,,,8.97195053100586,-4.654050350189209
1770770034190,,0.36900001764297485,,
1770770034191,,,8.850000381469727,-4.764000415802002
1770770034225,,0.690000057220459,,-4.72605037689209
1770770034226,,,8.529000282287598,-4.446000099182129
1770770034258,,0.6180000305175781,9.310050010681152,-4.141050338745117
1770770034293,,0.4020000100135803,,
1770770034294,,0.1770000010728836,8.53695011138916,-3.3990001678466797
1770770034306,0.8212167388242226,,,
1770770034307,,0.2989500164985657,9.6670503616333,-2.4529500007629395
1770770034340,,0.30900001525878906,8.604000091552734,-1.7470500469207764
1770770034362,,0.6439500451087952,10.018950462341309,-1.8499500751495361
1770770034369,0.946397899120382,0.9480000734329224,9.898950576782227,-1.9150501489639282
1770770034391,,1.1730000972747803,,
1770770034392,,,10.107000350952148,-1.6870501041412354
1770770034432,0.9317239848016553,0.9769500494003296,,
1770770034433,,,9.6739501953125,-1.891050100326538
1770770034449,,1.5210000276565552,9.856050491333008,-1.489050030708313
1770770034488,0.9317239848016553,1.6090500354766846,,-1.4740500450134277
1770770034489,,,9.916050910949707,
1770770034527,,-0.031950000673532486,9.142050743103027,-2.0029501914978027
1770770034559,,-0.5779500007629395,,-1.8930001258850098
1770770034560,,-0.3460500240325928,9.49905014038086,-2.01104998588562
1770770034569,0.8689354129226491,0.22005000710487366,9.571050643920898,-1.7209501266479492
1770770034594,,1.0939500331878662,10.294050216674805,-1.7730001211166382
1770770034614,,2.325000047683716,9.892050743103027,-1.0770000219345093
1770770034630,1.2323631115429055,,,
1770770034631,,2.5789501667022705,9.25200080871582,-0.7699500322341919
1770770034661,,2.275050163269043,9.316950798034668,-1.1320500373840332
1770770034669,,2.1289501190185547,9.319050788879395,-1.908000111579895
1770770034695,0.9972655640365635,1.9350000619888306,9.315000534057617,-2.2039501667022705
1770770034725,,2.25600004196167,,-2.1570000648498535
1770770034726,,,9.09000015258789,
1770770034751,0.9972655640365635,2.502000093460083,,
1770770034752,,2.653050184249878,9.123000144958496,-2.3479502201080322
1770770034779,,2.562000036239624,9.166050910949707,-2.5830001831054688
1770770034795,,2.4690001010894775,9.166050910949707,-2.470050096511841
1770770034832,0.4556427101596936,2.325000047683716,,
1770770034833,,,9.25005054473877,-2.4130501747131348
1770770034863,,2.9599502086639404,8.967000007629395,-2.797950029373169
1770770034890,,2.991000175476074,,-2.2039501667022705
1770770034891,,,8.66100025177002,
1770770034893,0.6733675502197175,3.289950132369995,,-1.3020000457763672
1770770034894,,,9.625950813293457,
1770770034929,,3.838050127029419,9.973050117492676,-1.1010000705718994
1770770034945,,3.4579501152038574,,
1770770034946,,,9.616050720214844,-1.0699501037597656
1770770034955,0.38642583215118836,,,
1770770034956,,3.1060502529144287,9.160950660705566,-0.6390000581741333
1770770034997,,2.63100004196167,,
1770770034998,,,9.942000389099121,-0.7579500079154968
1770770035014,0.38642583215118836,2.5309500694274902,,
1770770035015,,,9.528000831604004,-0.9670500755310059
1770770035055,,2.6700000762939453,9.934950828552246,-1.0219500064849854
1770770035103,0.6785186275576062,2.1289501190185547,9.930000305175781,-1.5049500465393066
1770770035132,,2.763000249862671,10.186050415039062,-1.2799500226974487
1770770035160,1.1167386627236644,,,
1770770035161,,3.034050226211548,9.40095043182373,-1.7329500913619995
1770770035200,,2.4850502014160156,,
1770770035201,,2.67900013923645,9.157050132751465,-1.7710500955581665
1770770035219,0.9926362111863962,2.5410001277923584,9.360000610351562,-1.711050033569336
1770770035268,,2.593050241470337,,-1.218000054359436
1770770035269,,,9.196950912475586,-2.0560500621795654
1770770035282,0.9926362111863962,2.124000072479248,8.86500072479248,-1.9270501136779785
1770770035330,,2.2320001125335693,9.418050765991211,-1.7089500427246094
1770770035359,1.0611743510931504,,,
1770770035360,,2.1499500274658203,8.958000183105469,-1.519950032234192
1770770035387,,1.6950000524520874,9.669000625610352,-1.9750500917434692
1770770035405,,1.6639500856399536,8.874000549316406,-1.9840500354766846
1770770035419,0.8942745790012471,,,
1770770035420,,2.0190000534057617,9.480000495910645,-2.0629501342773438
1770770035440,,1.8130500316619873,9.295950889587402,-1.90500009059906
1770770035469,,1.7860500812530518,,-2.401050090789795
1770770035470,,,9.44895076751709,
1770770035481,0.3508693856217202,2.3389501571655273,9.195000648498535,-1.4449501037597656
1770770035539,,1.9369500875473022,,-0.6550500392913818
1770770035540,,,8.902950286865234,
1770770035542,,2.253000020980835,,-0.1290000081062317
1770770035543,0.3508693856217202,,9.754950523376465,
1770770035566,,1.339050054550171,,-0.05895000323653221
1770770035567,,,10.144950866699219,
1770770035603,,0.8359500169754028,,
1770770035604,,,10.189050674438477,-0.4420500099658966
1770770035622,1.0602666720046683,0.9240000247955322,,-1.2160500288009644
1770770035623,,,9.619050025939941,
1770770035662,,1.4029500484466553,9.94005012512207,-0.8250000476837158
1770770035670,,0.6130500435829163,10.236000061035156,-1.519950032234192
1770770035684,0.7005310530549309,,,
1770770035685,,0.8860500454902649,9.556050300598145,-1.0069500207901
1770770035720,,0.6060000061988831,,-1.5130500793457031
1770770035721,,,9.741000175476074,
1770770035742,,0.6559500098228455,9.406050682067871,-0.7849500179290771
1770770035744,,0.7380000352859497,9.418050765991211,-1.1749500036239624
1770770035745,0.9619849783999461,,,
1770770035766,,0.6469500064849854,,
1770770035767,,,9.166050910949707,-0.8680500388145447
1770770035805,0.9619849783999461,,,
1770770035806,,1.3000500202178955,10.347000122070312,-0.8640000224113464
1770770035827,,3.3930001258850098,10.006950378417969,0.0499500036239624
1770770035883,,3.2920501232147217,10.738950729370117,0.3520500063896179
1770770035886,2.143051887927155,3.2320501804351807,10.588050842285156,1.2280501127243042
1770770035937,,3.95805025100708,10.450050354003906,0.7609500288963318
1770770035946,1.2215745912716118,,,
1770770035947,,3.0979502201080322,9.577950477600098,-1.3350000381469727
1770770035966,,3.003000259399414,8.704050064086914,-1.7329500913619995
1770770035993,,2.164950132369995,8.581950187683105,-1.6440000534057617
1770770036006,1.3715533494242111,,,
1770770036007,,2.2699501514434814,8.926950454711914,-1.5750000476837158
1770770036045,,2.7990000247955322,7.693950176239014,-1.3999500274658203
1770770036068,,3.181950092315674,9.508950233459473,-0.7300500273704529
1770770036103,,4.197000026702881,10.111950874328613,0.3660000264644623
1770770036145,,4.579950332641602,,0.2179500162601471
1770770036146,,,9.532950401306152,0.41895002126693726
1770770036149,1.0314548173440115,,,
1770770036151,,3.199050188064575,9.880050659179688,0.35895001888275146
1770770036209,,2.8660502433776855,,0.6030000448226929
1770770036210,,,8.934000015258789,0.6390000581741333
1770770036211,,,9.505950927734375,
1770770036212,1.0552450331205245,,,
1770770036265,,2.623950242996216,,
1770770036266,,,8.620050430297852,0.4620000123977661
1770770036270,0.5626421324980314,,,
1770770036271,,3.5530502796173096,9.67905044555664,0.0
1770770036321,,2.860950231552124,9.829050064086914,-0.6340500116348267
1770770036337,0.5626421324980314,2.4160501956939697,9.334050178527832,-1.752000093460083
1770770036375,,2.133000135421753,9.814950942993164,-2.3770501613616943
1770770036377,,2.0809500217437744,8.734950065612793,-2.797950029373169
1770770036410,,1.9060500860214233,9.133049964904785,-2.805000066757202
1770770036411,1.8971987477878505,,,
1770770036412,,1.9609501361846924,9.528000831604004,-3.664950132369995
1770770036473,1.0138282140811288,,,
1770770036474,,3.201000213623047,,
1770770036475,,,8.484000205993652,-3.5430002212524414
1770770036536,0.989198492743859,1.9320000410079956,,-2.0080502033233643
1770770036537,,,8.800050735473633,-1.0309500694274902
1770770036569,,1.8130500316619873,9.163949966430664,-1.1680500507354736
1770770036594,0.989198492743859,1.6690500974655151,,
1770770036595,,2.0310001373291016,9.5110502243042,-0.47805002331733704
1770770036650,,2.272050142288208,9.279000282287598,-0.7129500508308411
1770770036677,0.8212983519837304,2.0500500202178955,9.255000114440918,-0.9640500545501709
1770770036704,,2.1979501247406006,9.604050636291504,-1.5600000619888306
1770770036737,1.640166518317408,,,
1770770036738,,1.954050064086914,,
1770770036739,,,,-2.001000165939331
1770770036740,,,8.599050521850586,
1770770036759,,0.10305000841617584,,-3.3630001544952393
1770770036760,,,7.773000240325928,
1770770036800,1.088038929225285,,,
1770770036801,,-0.34095001220703125,,
1770770036802,,0.325950026512146,9.846000671386719,-2.4630000591278076
1770770036866,,0.9460500478744507,,
1770770036867,,1.5040500164031982,11.40000057220459,-1.1010000705718994
1770770036868,,,10.477950096130371,
1770770036884,,1.5679501295089722,9.406050682067871,0.46905001997947693
1770770036927,,0.8260500431060791,10.35105037689209,1.0750499963760376
1770770036938,2.6351179674875436,,,
1770770036939,,1.0200001001358032,10.420950889587402,1.6300500631332397
1770770036970,,1.3030500411987305,9.694950103759766,0.9960000514984131
1770770036980,,1.1759999990463257,,0.37605002522468567
1770770036981,,,9.372000694274902,
1770770036999,0.4856428350759956,,,
1770770037000,,1.7500500679016113,10.122000694274902,-0.43995001912117004
1770770037035,,1.908000111579895,9.814950942993164,-0.7560000419616699
1770770037060,0.8169893071841783,,,
1770770037061,,2.3869500160217285,10.27500057220459,-1.6180500984191895
1770770037083,,2.517000198364258,9.286050796508789,-1.120050072669983
1770770037122,0.8169893071841783,,,
1770770037123,,2.581050157546997,,-0.49995002150535583
1770770037124,,,8.788050651550293,
1770770037149,,3.343050241470337,9.829050064086914,-0.23205001652240753
1770770037184,,3.2539501190185547,9.856050491333008,0.25095000863075256
1770770037202,0.421684716721652,2.611950159072876,,-0.1980000138282776
1770770037203,,,9.813000679016113,-0.559950053691864
1770770037257,,1.915950059890747,9.385950088500977,-0.24795001745224
1770770037258,,,9.163949966430664,
1770770037262,0.5508436073012613,,,
1770770037263,,2.044950008392334,9.529950141906738,-0.39195001125335693
1770770037285,,2.3590500354766846,9.95205020904541,-0.25995001196861267
1770770037309,,2.509050130844116,,
1770770037310,,,9.873000144958496,-0.39195001125335693
1770770037323,0.754410491083201,,,
1770770037324,,2.6770501136779785,9.68595027923584,-0.33000001311302185
1770770037352,,2.55495023727417,9.973050117492676,-0.5140500068664551
1770770037364,,2.320050001144409,,-0.8400000333786011
1770770037365,,,9.910950660705566,
1770770037384,0.754410491083201,2.3869500160217285,,-0.9450000524520874
1770770037385,,,9.717000007629395,
1770770037418,,2.3149502277374268,,
1770770037419,,,9.607050895690918,-0.9949500560760498
1770770037471,0.7078299463408277,,,
1770770037472,,1.9750500917434692,,-1.3380000591278076
1770770037473,,,9.624000549316406,-1.752000093460083
1770770037486,,2.004000186920166,9.310050010681152,-1.4910000562667847
1770770037526,0.42980331247330433,,,
1770770037527,,1.8630000352859497,9.766950607299805,-1.7419500350952148
1770770037528,,,9.72195053100586,
1770770037553,,2.2200000286102295,9.51300048828125,-1.5510001182556152
1770770037573,,2.2170000076293945,,-1.4500501155853271
1770770037574,,,9.79800033569336,
1770770037585,0.3117903878061149,,,
1770770037586,,1.7500500679016113,9.742950439453125,-1.5319501161575317
1770770037621,,1.533000111579895,9.688050270080566,-1.4380500316619873
1770770037641,,1.6429500579833984,9.57300090789795,-1.3140000104904175
1770770037653,0.3117903878061149,1.7910001277923584,9.729000091552734,-1.1989500522613525
1770770037688,,1.6380001306533813,9.916050910949707,-1.4530500173568726
1770770037729,0.4416501713167556,,,
1770770037731,,1.5420000553131104,9.97095012664795,-1.5169501304626465
1770770037749,,1.924950122833252,9.601950645446777,-1.5679501295089722
1770770037771,,1.8030000925064087,9.565950393676758,-1.8019500970840454
1770770037790,0.249449436603712,1.6210501194000244,,-2.121000051498413
1770770037791,,,9.601950645446777,
1770770037823,,1.686000108718872,9.753000259399414,-2.1469500064849854
1770770037850,0.2525209637239177,1.659000039100647,9.681000709533691,-2.020050048828125
1770770037851,,,9.541950225830078,
1770770037890,,1.4250000715255737,,
1770770037891,,1.2790501117706299,9.580050468444824,-1.8169500827789307
1770770037911,0.2525209637239177,1.221000075340271,9.640050888061523,-1.8190500736236572
1770770037961,,1.1179500818252563,9.535050392150879,-1.8379501104354858
1770770037980,,1.2120000123977661,9.681000709533691,-1.8409501314163208
1770770037997,0.3869687823018558,,,
1770770037998,,1.3309500217437744,9.577950477600098,-1.8049501180648804
1770770038022,,1.2120000123977661,,
1770770038023,,,9.613950729370117,-2.070000171661377
1770770038054,0.20842811494713973,,,
1770770038055,,1.0420500040054321,9.67905044555664,-2.1880500316619873
1770770038056,,,9.68595027923584,
1770770038079,,1.1850000619888306,,
1770770038080,,,9.616050720214844,-2.2159500122070312
1770770038114,0.31196728839243376,1.2480000257492065,9.595050811767578,-2.239950180053711
1770770038135,,0.0580500029027462,9.466050148010254,-2.760000228881836
1770770038158,,-0.2770500183105469,,
1770770038159,,,9.23805046081543,-2.7739500999450684
1770770038173,0.31196728839243376,,,
1770770038174,,-0.2689500153064728,9.135000228881836,-2.7169501781463623
1770770038229,,-0.46605002880096436,9.451050758361816,-2.9539501667022705
1770770038247,,-0.28905001282691956,9.097050666809082,-3.138000249862671
1770770038265,1.102034176966324,-0.8940000534057617,9.135000228881836,-3.058950185775757
1770770038293,,-0.8680500388145447,9.420000076293945,-2.8819501399993896
1770770038300,,-1.4620500802993774,,-2.620950222015381
1770770038301,,,9.379050254821777,
1770770038318,1.2237398750735766,-1.3759500980377197,9.931950569152832,-2.4130501747131348
1770770038357,,-1.2079501152038574,,
1770770038358,,-0.9709500670433044,9.664050102233887,-2.038950204849243
1770770038375,0.8349408063636761,,,
1770770038376,,-0.3079500198364258,9.26205062866211,-1.9699500799179077
1770770038411,,-0.07800000160932541,9.717000007629395,-2.2669501304626465
1770770038428,,-0.1660500019788742,9.2160005569458,-2.887050151824951
1770770038439,0.8349408063636761,-0.09000000357627869,9.154050827026367,-3.3420002460479736
1770770038467,,-0.4230000078678131,9.205050468444824,-3.724950075149536
1770770038495,,-0.5659500360488892,9.415050506591797,-3.8370001316070557
1770770038518,0.6381305885630659,,,
1770770038519,,-0.41505002975463867,,
1770770038520,,,8.778000831604004,-3.277050256729126
1770770038562,,0.7780500650405884,10.083000183105469,-3.178950071334839
1770770038578,0.6322816105335667,,,
1770770038579,,0.2160000056028366,9.421950340270996,-3.0420000553131104
1770770038631,,-0.1860000044107437,,
1770770038632,,-0.1399500072002411,9.466050148010254,-3.007050037384033
1770770038640,0.41957153965090704,,,
1770770038641,,-0.06300000101327896,9.312000274658203,-2.7120001316070557
1770770038691,,-0.5879999995231628,9.231000900268555,-2.719050168991089
1770770038709,,-1.9810501337051392,8.874000549316406,-3.3610501289367676
1770770038743,,-0.6840000152587891,8.235000610351562,-3.2509500980377197
1770770038763,,0.05295000225305557,,
1770770038764,,,8.440950393676758,-4.2109503746032715
1770770038782,1.3680720492346055,0.20400001108646393,8.802000045776367,-4.090950012207031
1770770038832,,-0.1879500150680542,,-4.405050277709961
1770770038833,,,8.718000411987305,-4.480950355529785
1770770038843,1.315371415080161,,,
1770770038844,,0.040950000286102295,8.740050315856934,-4.741950035095215
1770770038899,,0.004950000438839197,,-4.716000080108643
1770770038900,,,9.019950866699219,-4.560000419616699
1770770038910,0.5534377727798659,-0.4849500358104706,8.756999969482422,-4.267950057983398
1770770038962,,-0.7339500188827515,,-3.955050230026245
1770770038963,,,8.473950386047363,-3.6630001068115234
1770770038965,0.5534377727798659,-0.15195000171661377,9.375,-3.607950210571289
1770770039015,,-0.013050000183284283,9.624000549316406,-3.5839502811431885
1770770039032,,-0.5040000081062317,9.613950729370117,-2.8369500637054443
1770770039045,1.0632299832689456,-0.8460000157356262,9.658950805664062,-2.479950189590454
1770770039069,,-1.3129500150680542,9.130050659179688,-2.1160500049591064
1770770039101,,-1.7730001211166382,,-2.0899500846862793
1770770039102,,,9.24000072479248,
1770770039108,0.8482609011812217,,,
1770770039109,,-1.5480000972747803,9.592050552368164,-2.521050214767456
1770770039130,,-1.1359500885009766,9.796050071716309,-2.986950159072876
1770770039167,0.5445771306109571,,,
1770770039169,,-0.5689499974250793,,-2.82705020904541
1770770039170,,,9.418050765991211,-2.8939502239227295
1770770039232,0.5445771306109571,,,
1770770039233,,-0.8250000476837158,,
1770770039234,,-1.1860500574111938,9.657000541687012,-2.8510501384735107
1770770039298,,-1.240950107574463,9.406050682067871,-3.1020002365112305
1770770039315,0.3207278698610753,-2.0119500160217285,8.93595027923584,-3.2410502433776855
1770770039346,,-2.455050230026245,8.836050033569336,-2.3770501613616943
1770770039369,1.0250916253983011,,,
1770770039370,,-2.5990500450134277,8.962950706481934,-2.5279500484466553
1770770039401,,-2.7400500774383545,8.65095043182373,-2.449050188064575
1770770039432,0.41203500881223715,,,
1770770039433,,-2.386050224304199,9.231000900268555,-2.449050188064575
1770770039456,,-2.824050188064575,8.805000305175781,-2.6520001888275146
1770770039490,0.41203500881223715,-2.515050172805786,9.7339506149292,-2.947050094604492
1770770039491,,,8.994000434875488,
1770770039511,,-3.043950080871582,,
1770770039512,,,8.541000366210938,-2.635050058364868
1770770039565,,-3.4780502319335938,9.015000343322754,-3.0420000553131104
1770770039572,0.9169994024900863,-3.621000289916992,8.02695083618164,-3.0979502201080322
1770770039622,,-2.6130001544952393,,
1770770039623,,-3.1590001583099365,9.68595027923584,-3.1620001792907715
1770770039632,1.6164580095797785,,,
1770770039633,,-2.776050090789795,7.384950160980225,-2.190000057220459
1770770039674,,0.05505000427365303,,-2.6569502353668213
1770770039675,,,9.328950881958008,
1770770039693,2.5225486489057434,,,
1770770039694,,-3.52305006980896,8.469000816345215,-2.0850000381469727
1770770039730,,-5.665950298309326,,
1770770039731,,,8.788050651550293,-4.0980000495910645
1770770039753,,0.08595000207424164,8.66100025177002,-1.9459501504898071
1770770039773,,-3.58305025100708,9.26205062866211,-1.9360500574111938
1770770039835,0.23738708949226053,-3.922950267791748,,
1770770039836,,-3.451050281524658,9.340950012207031,-2.3580000400543213
1770770039895,1.8221490460850567,,,
1770770039896,,-2.725950241088867,,
1770770039897,,-2.826000213623047,,-2.470050096511841
1770770039898,,,10.023000717163086,
1770770039950,,-2.0749499797821045,8.677950859069824,-3.0109500885009766
1770770039960,0.5823256496915328,-1.9620001316070557,9.339000701904297,-2.635050058364868
1770770040006,,-2.350050210952759,,
1770770040007,,,8.752050399780273,-3.0210001468658447
1770770040017,0.5823256496915328,-1.9000500440597534,9.312000274658203,-3.1210501194000244
1770770040055,,-2.8789501190185547,8.956050872802734,-3.394050121307373
1770770040071,,-2.6010000705718994,8.002950668334961,-2.9830501079559326
1770770040098,0.8791473736084895,,,
1770770040099,,-2.628000020980835,9.10200023651123,-3.177000045776367
1770770040163,0.625645733088672,,,
1770770040164,,-2.836050033569336,,
1770770040165,,-2.2540500164031982,9.063000679016113,-2.6140501499176025
1770770040220,1.1678144167995876,,,
1770770040221,,-2.3479502201080322,,
1770770040222,,-2.6010000705718994,,
1770770040223,,,,-2.257050037384033
1770770040224,,,9.532950401306152,
1770770040254,,-3.307950258255005,,-2.650050163269043
1770770040255,,,9.063000679016113,
1770770040280,1.1678144167995876,,,
1770770040281,,-3.0040502548217773,,-1.812000036239624
1770770040282,,,8.95305061340332,
1770770040309,,-2.76705002784729,,
1770770040310,,,8.734950065612793,-3.2320501804351807
1770770040338,,-2.593950033187866,8.986950874328613,-2.4340500831604004
1770770040362,0.6355964739764713,-2.8819501399993896,,-3.205050230026245
1770770040363,,,9.858000755310059,
1770770040398,,-2.826000213623047,9.244950294494629,-3.2599501609802246
1770770040423,0.43462486353321583,,,
1770770040424,,-2.8819501399993896,9.600000381469727,-3.028050184249878
1770770040442,,-2.407050132751465,,
1770770040443,,,8.496000289916992,-2.805000066757202
1770770040484,0.8845999859503051,-2.4340500831604004,9.351000785827637,-2.7649500370025635
1770770040510,,-1.7710500955581665,9.127950668334961,-3.3799500465393066
1770770040543,0.8845999859503051,,,
1770770040544,,-2.1349501609802246,8.170050621032715,-3.43500018119812
1770770040581,,-4.134000301361084,8.730000495910645,-3.598050117492676
1770770040613,,-3.973050117492676,8.320950508117676,-3.390000104904175
1770770040624,0.2868672472294741,,,
1770770040625,,-3.315000057220459,9.127950668334961,-3.1720502376556396
1770770040645,,-3.1780500411987305,8.434050559997559,-3.5020501613616943
1770770040666,,-2.776050090789795,8.788050651550293,-3.0900001525878906
1770770040685,0.25106156983890543,-2.628000020980835,,
1770770040686,,,8.730000495910645,-3.2029502391815186
1770770040711,,-2.4649500846862793,9.25005054473877,-2.959050178527832
1770770040747,0.7400178215097516,-2.496000051498413,9.031949996948242,-3.3390002250671387
1770770040776,,-2.647050142288208,9.40095043182373,-3.220050096511841
1770770040809,0.7400178215097516,,,
1770770040810,,-2.6800501346588135,8.311050415039062,-3.346950054168701
1770770040829,,-3.1429500579833984,8.587050437927246,-3.9430501461029053
1770770040849,,-2.968050241470337,8.472000122070312,-3.2340002059936523
1770770040885,,-2.8720500469207764,9.544950485229492,-3.9930002689361572
1770770040888,0.7982456163333196,,,
1770770040889,,-2.617950201034546,9.135000228881836,-3.3229501247406006
1770770040913,,-2.716050148010254,8.425950050354004,-3.2440502643585205
1770770040939,,-2.5920000076293945,8.746950149536133,-2.7120001316070557
1770770040948,0.257862418572797,,,
1770770040949,,-3.0520501136779785,8.67495059967041,-3.1050002574920654
1770770040974,,-2.9820001125335693,8.934000015258789,-3.28695011138916
1770770040996,,-2.886000156402588,8.604000091552734,-3.4489500522613525
1770770041009,0.3215712493655221,,,
1770770041010,,-2.956050157546997,,
1770770041011,,,9.079950332641602,-3.3130502700805664
1770770041049,,-2.4910500049591064,8.761950492858887,-3.517050266265869
1770770041050,,-2.3740501403808594,8.407050132751465,-3.5400002002716064
1770770041073,0.3215712493655221,-2.5729501247406006,9.328950881958008,-3.366000175476074
1770770041105,,-2.77905011177063,9.082050323486328,-3.7729501724243164
1770770041116,,-2.8530001640319824,,
1770770041117,,,8.593950271606445,-3.595950126647949
1770770041151,0.27431867849102165,-2.8030500411987305,8.529000282287598,-3.0739500522613525
1770770041174,,-2.7910501956939697,9.121050834655762,-3.586050271987915
1770770041212,0.3586559565822873,,,
1770770041213,,-2.527050018310547,8.689949989318848,-4.371000289916992
1770770041249,,-2.5099501609802246,8.10300064086914,-3.4180500507354736
1770770041269,,-2.416950225830078,8.68695068359375,-3.4230000972747803
1770770041272,0.46176622537174966,,,
1770770041273,,-2.1850500106811523,9.111000061035156,-3.7990500926971436
1770770041317,,-1.6440000534057617,,
1770770041318,,,9.552000045776367,-4.0410003662109375
1770770041334,0.46176622537174966,,,
1770770041335,,-0.8700000643730164,8.866950035095215,-3.2479500770568848
1770770041375,,-1.3180500268936157,,
1770770041376,,-1.7610000371932983,9.439050674438477,-3.2989501953125
1770770041415,0.42862982188928156,-2.427000045776367,9.193050384521484,-3.198000192642212
1770770041435,,-2.7589502334594727,9.286050796508789,-3.604950189590454
1770770041475,0.8135652528112405,,,
1770770041476,,-2.568000078201294,8.902950286865234,-3.7510502338409424
1770770041522,,-3.0400500297546387,,
1770770041523,,-2.998950242996216,8.97195053100586,-3.409050226211548
1770770041536,0.6922636588675386,,,
1770770041537,,-2.617950201034546,8.623050689697266,-2.9800500869750977
1770770041575,,-2.545950174331665,,
1770770041576,,,8.43600082397461,-2.9629502296447754
1770770041588,,-3.406050205230713,8.473950386047363,-2.9710500240325928
1770770041606,0.6922636588675386,-3.3889501094818115,9.21405029296875,-3.556950092315674
1770770041661,,-3.157050132751465,8.589000701904297,-3.624000072479248
1770770041679,0.7232023495491439,-2.038950204849243,8.970000267028809,-3.8299500942230225
1770770041709,,-1.2250500917434692,8.659049987792969,-3.813000202178955
1770770041721,,-1.5460500717163086,8.683050155639648,-3.936000108718872
1770770041743,0.5460057025269288,-1.6410000324249268,8.842950820922852,-3.9760501384735107
1770770041764,,-2.032050132751465,,-4.33305025100708
1770770041765,,,8.830950736999512,
1770770041789,,-1.9240500926971436,,
1770770041790,,,9.013050079345703,-4.144050121307373
1770770041799,0.45563420714192404,,,
1770770041800,,-2.1559500694274902,,-4.01894998550415
1770770041801,,,8.596050262451172,
1770770041819,,-2.269050121307373,,-3.763050079345703
1770770041820,,,8.632050514221191,
1770770041856,,-2.158050060272217,9.055950164794922,-3.8680500984191895
1770770041860,0.45563420714192404,-1.7989500761032104,9.195000648498535,-3.576000213623047
1770770041925,,-1.4929500818252563,8.991000175476074,-3.2440502643585205
1770770041926,,,9.109050750732422,
1770770041945,0.47677163710001,,,
1770770041946,,-2.719050168991089,8.826000213623047,-3.636000156402588
1770770041975,,-2.9580001831054688,8.836050033569336,-3.469050168991089
1770770041984,,-2.3430001735687256,8.85300064086914,-3.280050039291382
1770770042002,0.29191338231617364,,,
1770770042003,,-1.9999500513076782,9.154050827026367,-3.2290501594543457
1770770042046,,-1.8709501028060913,,
1770770042047,,,9.187950134277344,-3.109950065612793
1770770042057,,-1.8780001401901245,8.848050117492676,-2.9419500827789307
1770770042063,0.27628381772418154,-1.864050030708313,,-3.136050224304199
1770770042064,,,9.148950576782227,
1770770042096,,-1.7800500392913818,,-3.0829501152038574
1770770042097,,,9.42495059967041,
1770770042127,0.27628381772418154,-2.01705002784729,,-2.7580502033233643
1770770042128,,,9.78600025177002,-2.31000018119812
1770770042160,,-3.3289501667022705,8.788050651550293,-2.1349501609802246
1770770042177,,-3.832050085067749,9.106050491333008,-2.2450501918792725
1770770042193,,-3.5299501419067383,8.805000305175781,-2.3940000534057617
1770770042203,0.37760469721614354,,,
1770770042204,,-2.577000141143799,8.974950790405273,-2.6760001182556152
1770770042257,,-1.4590500593185425,,
1770770042258,,-1.3060500621795654,8.63895034790039,-2.884050130844116
1770770042259,,,8.830950736999512,
1770770042268,0.8423639498358187,,,
1770770042269,,-1.76295006275177,,-3.624000072479248
1770770042270,,,9.291000366210938,
1770770042315,,-2.805000066757202,,
1770770042316,,,8.769000053405762,-3.7270500659942627
1770770042326,1.1506901660308362,,,
1770770042327,,-2.047950029373169,7.761000156402588,-3.9910502433776855
1770770042370,,-0.34095001220703125,10.53795051574707,-4.282950401306152
1770770042386,1.1506901660308362,,,
1770770042387,,0.520050048828125,8.556000709533691,-3.05400013923645
1770770042425,,-1.7130000591278076,8.12700080871582,-3.2440502643585205
1770770042462,,-2.3839499950408936,,-2.5540502071380615
1770770042463,,,10.600050926208496,
1770770042467,1.8232891973678118,,,
1770770042468,,-0.10200000554323196,9.69795036315918,-1.194000005722046
1770770042528,,-0.2569500207901001,,
1770770042529,,-2.8410000801086426,9.2160005569458,-0.41805002093315125
1770770042530,2.4204154261750426,,,
1770770042578,,-3.0949501991271973,,
1770770042579,,-3.3580501079559326,7.591050148010254,-0.6289500594139099
1770770042580,,,6.951000213623047,
1770770042589,3.398343209898851,-3.5520002841949463,11.97195053100586,-2.9010000228881836
1770770042645,,-1.7130000591278076,,
1770770042646,,0.1080000028014183,,-3.8400001525878906
1770770042647,,,9.07800006866455,
1770770042666,3.398343209898851,,,
1770770042667,,-0.1660500019788742,9.492000579833984,-5.580000400543213
1770770042701,,0.9220500588417053,9.26205062866211,-5.728950500488281
1770770042727,,2.490000009536743,,
1770770042728,,,9.535050392150879,-6.088050365447998
1770770042738,3.752258637841201,2.004000186920166,8.709000587463379,-6.7699503898620605
1770770042755,,1.165950059890747,,-5.442000389099121
1770770042756,,,6.22605037689209,
1770770042783,,-0.9280500411987305,7.794000148773193,-6.523950099945068
1770770042791,3.8316213406048254,,,
1770770042792,,-2.5030500888824463,8.641950607299805,-8.070000648498535
1770770042853,1.7221737832603148,,,
1770770042854,,-3.8899502754211426,,
1770770042855,,-2.5249500274658203,7.981050491333008,-7.845000267028809
1770770042856,,,7.074000358581543,
1770770042920,1.7221737832603148,,,
1770770042921,,-0.8110500574111938,,-5.8560004234313965
1770770042922,,,8.227950096130371,-4.455000400543213
1770770042978,,-2.593950033187866,,-3.696000099182129
1770770042979,,,8.797050476074219,-2.647050142288208
1770770043004,3.061039634819363,-2.278050184249878,,-0.9810000658035278
1770770043005,,,7.504950523376465,
1770770043038,,-3.514050245285034,9.52500057220459,-1.3210500478744507
1770770043055,2.9403816860288208,,,
1770770043056,,-3.805950164794922,,-1.8720000982284546
1770770043057,,,10.926000595092773,-1.2829500436782837
1770770043085,,-2.616000175476074,9.20205020904541,-0.40605002641677856
1770770043117,1.176176137925971,,,
1770770043118,,-1.8160500526428223,8.938950538635254,-1.2300000190734863
1770770043119,,,9.846000671386719,
1770770043140,,-2.0560500621795654,,-1.765950083732605
1770770043141,,,9.825000762939453,
1770770043179,,-1.807050108909607,9.17805004119873,-1.7470500469207764
1770770043191,0.3172146747956053,-1.5310500860214233,9.688050270080566,-2.9800500869750977
1770770043249,,-1.9549500942230225,9.592050552368164,-3.05400013923645
1770770043259,0.8623506527289372,,,
1770770043260,,-1.7869501113891602,8.53695011138916,-3.076050043106079
1770770043305,,-2.0440499782562256,,
1770770043306,,,9.295950889587402,-3.5050501823425293
1770770043319,0.634775038429299,,,
1770770043320,,-1.2750000953674316,8.986950874328613,-3.5689501762390137
1770770043332,,-0.8340000510215759,,
1770770043333,,,8.473950386047363,-3.495000123977661
1770770043360,,-1.3609501123428345,,-3.6630001068115234
1770770043361,,,8.8410005569458,
1770770043373,0.634775038429299,,,
1770770043374,,-1.7850000858306885,9.427050590515137,-4.038000106811523
1770770043401,,-1.7560501098632812,9.163949966430664,-4.096050262451172
1770770043415,,-1.0549499988555908,8.986950874328613,-3.736950159072876
1770770043456,0.3809883290615891,,,
1770770043457,,-0.8320500254631042,,
1770770043458,,-0.7120500206947327,9.133049964904785,-3.358950138092041
1770770043517,0.5885780345741787,,,
1770770043519,,-0.7939500212669373,,-3.4110002517700195
1770770043520,,,9.75,-3.178950071334839
1770770043581,0.2755306374957431,,,
1770770043582,,-0.22605000436306,9.439050674438477,-2.947050094604492
1770770043603,,-1.048050045967102,9.1399507522583,-2.884050130844116
1770770043635,,-1.0740000009536743,,
1770770043636,,,8.908050537109375,-3.049950122833252
1770770043640,0.2755306374957431,-0.8130000233650208,8.737950325012207,-2.9509501457214355
1770770043670,,-0.5160000324249268,9.007950782775879,-2.959050178527832
1770770043691,,-1.5289500951766968,9.64995002746582,-2.8650002479553223
1770770043719,1.1326944750107097,,,
1770770043720,,-0.9799500703811646,9.40095043182373,-2.860950231552124
1770770043745,,-0.9109500646591187,,
1770770043746,,,8.40000057220459,-2.4439501762390137
1770770043784,0.3647008048133662,-1.0600500106811523,9.25200080871582,-2.668950080871582
1770770043800,,-0.3439500033855438,9.039000511169434,-3.258000135421753
1770770043841,0.6746342135894547,-0.3960000276565552,,
1770770043842,,,,-3.7009501457214355
1770770043875,,-0.29100000858306885,8.896050453186035,-3.853950262069702
1770770043901,0.6746342135894547,,,
1770770043902,,0.12195000797510147,9.406050682067871,-3.535950183868408
1770770043938,,0.24000000953674316,9.21405029296875,-3.567000150680542
1770770043965,,0.7519500255584717,,-3.4710001945495605
1770770043966,,,9.472949981689453,-3.4230000972747803
1770770043981,0.9242459858277587,,,
1770770043982,,1.2619500160217285,9.391050338745117,-3.475950241088867
1770770044020,,1.377000093460083,9.658950805664062,-3.607950210571289
1770770044042,1.1820194866555696,,,
1770770044043,,1.7839500904083252,9.619050025939941,-3.466050148010254
1770770044073,,1.3150500059127808,9.781949996948242,-3.397050142288208
1770770044103,0.14792835604680665,,,
1770770044104,,0.8740500211715698,9.588000297546387,-3.3799500465393066
1770770044131,,-0.0970500037074089,,-3.337050199508667
1770770044132,,,9.367050170898438,
1770770044164,0.14792835604680665,,,
1770770044165,,-0.45600003004074097,,-3.295950174331665
1770770044166,,,9.25005054473877,
1770770044185,,-0.9469500184059143,9.199950218200684,-3.14805006980896
1770770044208,,-1.210050106048584,,
1770770044209,,,9.292950630187988,-3.1210501194000244
1770770044240,,-1.3489500284194946,,-3.0810000896453857
1770770044241,,,9.118050575256348,
1770770044253,1.1488003838648726,,,
1770770044254,,-1.633950114250183,9.015000343322754,-2.8939502239227295
1770770044285,,-1.9309500455856323,9.20205020904541,-2.845950126647949
1770770044302,,-1.7539501190185547,9.171000480651855,-2.887050151824951
1770770044306,0.599393227849971,-1.4449501037597656,9.292950630187988,-3.0139501094818115
1770770044342,,-1.1340000629425049,,
1770770044343,,,9.147000312805176,-3.058950185775757
1770770044349,,-0.6190500259399414,9.22800064086914,-3.117000102996826
1770770044368,0.48456020813646833,-0.5329500436782837,,-2.9710500240325928
1770770044369,,,9.523050308227539,
1770770044405,,-0.25005000829696655,9.41295051574707,-3.057000160217285
1770770044410,,-0.43695002794265747,,
1770770044411,,,9.407999992370605,-3.028050184249878
1770770044427,0.48456020813646833,-0.9520500302314758,,
1770770044428,,,9.355050086975098,-2.974950075149536
1770770044460,,-1.467000126838684,9.184950828552246,-3.1650002002716064
1770770044480,,-1.6920000314712524,,
1770770044481,,,9.015000343322754,-3.2100000381469727
1770770044509,0.42058718118796384,-1.7539501190185547,,
1770770044510,,,9.12600040435791,-3.2560501098632812
1770770044552,,-1.4620500802993774,,-3.283950090408325
1770770044553,,,9.11400032043457,
1770770044584,0.07457991612631454,-1.3680000305175781,9.22095012664795,-3.3010501861572266
1770770044618,,-1.0980000495910645,,
1770770044619,,-1.519050121307373,9.307050704956055,-3.385050058364868
1770770044630,0.23110681237682784,,,
1770770044631,,-1.3470001220703125,9.147000312805176,-3.5190000534057617
1770770044680,,-1.3350000381469727,,
1770770044681,,-1.270050048828125,9.063000679016113,-3.5400002002716064
1770770044690,0.23110681237682784,-1.1700000762939453,,
1770770044691,,,9.184950828552246,-3.52905011177063
1770770044740,,-1.0999500751495361,9.181050300598145,-3.466050148010254
1770770044771,0.11717720383871247,,,
1770770044772,,-1.078950047492981,,-3.2700002193450928
1770770044773,,,9.19005012512207,
1770770044813,,-0.9970500469207764,,-3.1930501461029053
1770770044814,,,9.22800064086914,
1770770044833,0.21231161350158373,,,
1770770044839,,-0.753000020980835,9.276000022888184,-3.1930501461029053
1770770044882,,-0.6810000538825989,,-3.226950168609619
1770770044883,,,9.316950798034668,-3.217050075531006
1770770044893,0.1826590015866556,-0.6570000052452087,,-3.220050096511841
1770770044894,,,9.26205062866211,
1770770044948,,-0.6360000371932983,,
1770770044949,,,9.307050704956055,-3.2479500770568848
1770770044953,0.1826590015866556,-0.5850000381469727,,
1770770044954,,,9.26205062866211,-3.3229501247406006
1770770044985,,-0.6139500141143799,,-3.3229501247406006
1770770044986,,,9.244950294494629,
1770770045010,,-0.7459500432014465,9.244950294494629,-3.3630001544952393
1770770045015,,-0.820050060749054,9.205050468444824,-3.3730502128601074
1770770045035,0.07041081204684344,,,
1770770045036,,-0.8820000290870667,9.19005012512207,-3.3490500450134277
1770770045067,,-0.8340000510215759,9.292950630187988,-3.3490500450134277
1770770045085,,-0.7200000286102295,9.288000106811523,-3.366000175476074
1770770045102,0.048073453646196,,,
1770770045103,,-0.6690000295639038,9.312000274658203,-3.355950117111206
1770770045120,,-0.8250000476837158,9.163949966430664,-3.3490500450134277
1770770045150,,-0.7909500598907471,,
1770770045151,,,9.211950302124023,-3.330000162124634
1770770045156,0.051617977793044764,,,
1770770045157,,-0.853950023651123,9.205050468444824,-3.3540000915527344
1770770045177,,-0.906000018119812,9.2160005569458,-3.325050115585327
1770770045216,0.051617977793044764,-0.8320500254631042,,
1770770045217,,-0.7990500330924988,9.2160005569458,-3.3130502700805664
1770770045284,,-0.8149500489234924,9.268950462341309,-3.2940001487731934
1770770045312,0.07214393873806373,-0.8419500589370728,9.292950630187988,-3.1930501461029053
