timestamp,LinearAccelerometerSensor,AccX,AccY,AccZ
1770765809553,,0.9000000357627869,4.701000213623047,
1770765809613,,,4.648050308227539,7.4320502281188965
1770765809614,4.50300942563183,1.4700000286102295,4.335000038146973,
1770765809619,,5.056950092315674,1.5480000972747803,9.409049987792969
1770765809659,1.1186424331525744,4.066050052642822,2.7660000324249268,8.289000511169434
1770765809688,,1.0369499921798706,3.7890002727508545,8.212050437927246
1770765809700,,,,6.6060004234313965
1770765809701,,1.4440500736236572,2.8909502029418945,
1770765809735,,,,6.0360002517700195
1770765809736,,,,8.00100040435791
1770765809737,1.7356022796957005,1.4940000772476196,3.352950096130371,
1770765809755,,0.2850000262260437,3.5350501537323,6.505050182342529
1770765809797,8.048737838079509,1.968000054359436,6.772050380706787,2.371950149536133
1770765809821,,4.819950103759766,2.644050121307373,4.750050067901611
1770765809867,,,,16.822050094604492
1770765809868,,6.481050491333008,3.003000259399414,17.119050979614258
1770765809869,8.939833543153746,,,
1770765809886,,,,10.642050743103027
1770765809887,,0.6439500451087952,-1.0920000076293945,
1770765809918,7.9238004432441045,0.8190000653266907,-2.206050157546997,5.760000228881836
1770765809952,,,,-3.604950189590454
1770765809953,,9.946050643920898,-1.2499500513076782,
1770765809973,,,,-8.857950210571289
1770765809974,,15.430951118469238,-0.5220000147819519,
1770765809979,,19.437000274658203,-0.1969500035047531,-6.997950553894043
1770765809999,,,-0.05100000277161598,-3.385050058364868
1770765810000,11.293476105215015,20.281951904296875,,
1770765810020,,,1.3729500770568848,-3.0400500297546387
1770765810021,,11.623950958251953,,
1770765810059,,,,-2.050950050354004
1770765810060,5.017874620229734,7.456050395965576,3.832050085067749,
1770765810079,,11.884950637817383,3.741000175476074,-5.278950214385986
1770765810120,4.2066578818913145,45.142051696777344,-4.999950408935547,-6.895050525665283
1770765810138,,,,-6.202950477600098
1770765810139,,9.084000587463379,-1.8799500465393066,
1770765810172,,2.3800501823425293,0.18000000715255737,3.6750001907348633
1770765810181,,-6.89400053024292,4.726950168609619,-6.454050540924072
1770765810182,13.918026307592184,,,
1770765810224,,1.377000093460083,-7.1260504722595215,-1.6540501117706299
1770765810251,,8.731950759887695,2.4840002059936523,24.29505157470703
1770765810264,7.401306305104029,28.678951263427734,-20.143951416015625,-36.98400115966797
1770765810292,,12.415050506591797,-0.453000009059906,-2.3389501571655273
1770765810304,,13.96095085144043,-11.392951011657715,-2.287950038909912
1770765810323,,,-1.4850000143051147,-1.7899501323699951
1770765810324,7.193856786868272,1.53000009059906,,
1770765810364,,,,-4.720950126647949
1770765810365,,2.611950159072876,-1.902000069618225,
1770765810377,,7.600050449371338,-1.897050142288208,-1.9360500574111938
1770765810389,,,,-3.7579500675201416
1770765810390,4.357508105797377,9.498000144958496,-1.6410000324249268,
1770765810413,,,,-6.2989501953125
1770765810414,,10.97295093536377,-2.0809500217437744,
1770765810424,,11.152950286865234,-2.0190000534057617,-3.8209502696990967
1770765810444,,,,-1.3069500923156738
1770765810445,,13.39905071258545,-2.373000144958496,
1770765810446,7.074440913132178,,,
1770765810468,,10.240950584411621,-4.5329999923706055,-6.435000419616699
1770765810491,,6.838050365447998,-5.662950038909912,-8.87700080871582
1770765810525,2.6547118277330335,8.557050704956055,-7.213950157165527,-8.29800033569336
1770765810559,,6.256050109863281,-8.138999938964844,-1.2829500436782837
1770765810570,,4.743000030517578,-8.838000297546387,0.24105000495910645
1770765810586,8.080209134860677,6.13200044631958,-8.770950317382812,2.8750500679016113
1770765810625,,,-8.068950653076172,-2.140050172805786
1770765810626,,4.128000259399414,-5.788050174713135,
1770765810645,,,-5.665050506591797,-5.748000144958496
1770765810646,4.363236224728522,10.506000518798828,,
1770765810694,,6.4960503578186035,-5.244000434875488,-5.764950275421143
1770765810710,2.636403337616183,7.117950439453125,-4.573950290679932,-4.63200044631958
1770765810742,,,,-7.849950313568115
1770765810743,,7.948950290679932,-4.645050048828125,
1770765810759,,,,-7.64400053024292
1770765810760,,6.879000186920166,-4.588050365447998,
1770765810769,,,,-3.8610002994537354
1770765810770,,5.742000102996826,-2.8470001220703125,
1770765810786,,11.701050758361816,-4.063950061798096,-3.658050060272217
1770765810787,3.5454941805155773,,,
1770765810827,,10.449000358581543,-6.357000350952148,-4.120050430297852
1770765810853,,,,-2.013000011444092
1770765810854,,9.592050552368164,-2.8350000381469727,-2.218950033187866
1770765810855,2.769482524749889,,,
1770765810894,,,-3.2809500694274902,-3.4260001182556152
1770765810895,,9.964950561523438,,
1770765810908,0.8405962035057781,5.305950164794922,-3.7930502891540527,-4.045950412750244
1770765810960,,,,-3.7540502548217773
1770765810961,,,-4.885050296783447,-3.696000099182129
1770765810962,,6.276000499725342,,
1770765810969,,,-5.124000072479248,-3.793950080871582
1770765810970,1.3817268894693044,6.886050224304199,,
1770765811018,,,,-5.995050430297852
1770765811019,,6.12000036239624,-5.53095006942749,-5.53695011138916
1770765811050,,,,-5.713950157165527
1770765811051,,,-5.806950092315674,
1770765811052,1.8089450305539065,7.180950164794922,,
1770765811081,,6.474000453948975,-5.614950180053711,-0.2440500110387802
1770765811096,,7.954050540924072,-6.661050319671631,-0.27900001406669617
1770765811111,,,-6.829050540924072,-2.9059500694274902
1770765811112,2.6816159974458627,8.350950241088867,,
1770765811162,,,-4.8349504470825195,-5.92995023727417
1770765811163,,8.91195011138916,-7.0159502029418945,
1770765811174,,5.779950141906738,-4.449000358581543,-3.6190502643585205
1770765811175,1.5990144137841604,,,
1770765811230,,,,-2.800950050354004
1770765811231,,4.666950225830078,-6.523050308227539,-2.050950050354004
1770765811232,4.15641956413686,9.880950927734375,-5.008950233459473,-4.4599504470825195
1770765811293,,10.06605052947998,-4.272000312805176,-7.216050148010254
1770765811313,2.640508886188333,6.091050148010254,-4.387050151824951,-0.505050003528595
1770765811348,,,-4.090050220489502,-0.527999997138977
1770765811351,,5.686950206756592,,
1770765811376,,,-4.801050186157227,-5.053950309753418
1770765811377,3.73602718052585,7.798050403594971,-3.8620502948760986,
1770765811404,,8.797050476074219,-3.271050214767456,-4.666050434112549
1770765811429,,,,-3.6910502910614014
1770765811430,,7.815000534057617,-2.902050256729126,
1770765811435,,6.184950351715088,-4.216950416564941,-4.7470502853393555
1770765811436,1.6933036891840523,,,
1770765811460,,8.683950424194336,-5.032950401306152,-6.49500036239624
1770765811496,,8.91195011138916,-6.400050163269043,-5.323950290679932
1770765811497,1.7822268300513497,,,
1770765811567,,,,-4.192049980163574
1770765811568,,7.105950355529785,-6.364950180053711,-1.5700501203536987
1770765811586,5.2440225996378675,8.713050842285156,-5.2510504722595215,2.0970001220703125
1770765811633,,10.426950454711914,-4.789050102233887,0.984000027179718
1770765811638,,-0.7270500063896179,-2.470950126647949,-2.02305006980896
1770765811639,8.378227409126763,,,
1770765811677,,,,-1.7400001287460327
1770765811678,,1.8799500465393066,-4.564050197601318,
1770765811700,,9.376049995422363,-5.014050006866455,-2.6430001258850098
1770765811701,3.624230533357852,,,
1770765811734,,,,-7.264050483703613
1770765811735,,1.5010501146316528,-2.2200000286102295,
1770765811759,,,,-6.177000522613525
1770765811760,2.40148851011388,8.679000854492188,-5.538000106811523,
1770765811793,,8.557050704956055,-4.746000289916992,-5.640000343322754
1770765811834,,4.729050159454346,-4.906050205230713,-4.948050022125244
1770765811848,,,-3.4990501403808594,-2.9130001068115234
1770765811849,4.11340111596775,9.2920503616333,,
1770765811898,,,,-2.013000011444092
1770765811899,,6.6160502433776855,-5.577000141143799,-1.8840000629425049
1770765811900,,,,-3.2989501953125
1770765811901,1.8785359420201215,8.469000816345215,-6.379050254821777,
1770765811953,,6.943950176239014,-4.9609503746032715,-2.4940500259399414
1770765811966,,5.670000076293945,-3.400050163269043,-2.6620500087738037
1770765811967,1.676436716215844,,,
1770765812008,,,,-4.71405029296875
1770765812009,,6.57705020904541,-5.862000465393066,-5.511000156402588
1770765812022,4.028816138993132,3.9820501804351807,-5.335050106048584,-6.796950340270996
1770765812063,,3.4810502529144287,-5.589000225067139,-6.706050395965576
1770765812105,1.8948016730728157,4.947000026702881,-6.30495023727417,-4.474050045013428
1770765812166,,,,-2.9010000228881836
1770765812167,,6.4770002365112305,-5.2099504470825195,
1770765812168,2.5592955114669054,,,
1770765812225,,4.2330002784729,-9.118050575256348,0.21495001018047333
1770765812226,5.336638419946038,4.699950218200684,,
1770765812283,,,,-6.8520002365112305
1770765812284,,13.939950942993164,-6.115950107574463,-4.017000198364258
1770765812285,,,,0.16695000231266022
1770765812286,2.877983038400979,5.991000175476074,-6.763950347900391,
1770765812342,,4.846050262451172,-6.28095006942749,-1.7089500427246094
1770765812368,,,,-5.592000484466553
1770765812369,4.0231954853638605,2.4160501956939697,-4.168950080871582,
1770765812394,,,-7.770000457763672,0.9070500135421753
1770765812395,,8.437950134277344,,
1770765812429,,7.228950500488281,-7.255050182342529,-4.903050422668457
1770765812430,6.8367014082099224,,,
1770765812451,,9.793050765991211,-1.8130500316619873,-8.017950057983398
1770765812491,,,,-5.149050235748291
1770765812492,1.362080217141809,7.521000385284424,-3.4669501781463623,-2.5470001697540283
1770765812550,,,,-2.817000150680542
1770765812551,,,-5.079000473022461,-5.857950210571289
1770765812552,,9.175050735473633,-5.697000503540039,
1770765812554,5.037172800044176,,,
1770765812570,,9.81195068359375,-3.475050210952759,-4.5960001945495605
1770765812614,,,,-2.5660500526428223
1770765812615,,6.175050258636475,-4.528050422668457,
1770765812632,,,,-5.427000045776367
1770765812633,3.9923365615517845,3.3570001125335693,-5.239050388336182,
1770765812668,,,,-4.462050437927246
1770765812669,,2.533050060272217,-7.440000534057617,
1770765812697,3.884256320898876,4.747950077056885,-7.000950336456299,-0.6600000262260437
1770765812728,,7.939950466156006,-7.686000347137451,-0.05700000375509262
1770765812754,,,,-1.287000060081482
1770765812755,4.52203716417012,7.3309502601623535,-7.53795051574707,
1770765812783,,6.2059502601623535,-7.849050521850586,-1.3930500745773315
1770765812815,,6.916950225830078,-4.945050239562988,-2.1450002193450928
1770765812816,1.7345477868692063,,,
1770765812833,,,,-5.278950214385986
1770765812834,,8.847000122070312,-6.0319504737854,
1770765812888,,,,-2.359950065612793
1770765812889,,,,-2.69100022315979
1770765812891,,5.473950386047363,-6.274050235748291,
1770765812895,2.9078192627268047,7.123050212860107,-3.1710002422332764,-6.094950199127197
1770765812953,,,-4.401000022888184,-7.4239501953125
1770765812954,,6.237000465393066,,
1770765812955,4.938434367558766,8.315999984741211,-2.1979501247406006,-7.234950542449951
1770765812984,,9.355050086975098,-2.4000000953674316,-6.684000492095947
1770765812999,,8.337000846862793,-4.147050380706787,-4.584000110626221
1770765813017,,5.1220502853393555,-3.891000270843506,-3.1600501537323
1770765813018,2.8953324211740457,,,
1770765813046,,4.6620001792907715,-5.509950160980225,-3.2410502433776855
1770765813078,,,-6.151050090789795,-4.723050117492676
1770765813079,,7.966050148010254,-7.260000228881836,
1770765813080,3.3481521862265744,,,
1770765813108,,,,-1.456950068473816
1770765813109,,10.332000732421875,-8.610000610351562,
1770765813162,,,-6.22605037689209,-0.7630500197410583
1770765813163,1.3479331354061819,9.472050666809082,,
1770765813177,,4.645050048828125,-8.086050033569336,-2.7619500160217285
1770765813219,,,,-5.719050407409668
1770765813220,2.8618706823492626,7.399050235748291,-6.604050159454346,-5.608950138092041
1770765813249,,6.988950252532959,-5.998050212860107,-4.138950347900391
1770765813274,,5.3110504150390625,-8.731950759887695,-2.0749499797821045
1770765813279,,,,-0.5670000314712524
1770765813280,4.200158870053775,7.474950313568115,-7.768050193786621,
1770765813309,,13.530000686645508,-2.1889500617980957,-0.7300500273704529
1770765813329,,13.405950546264648,-2.40405011177063,-8.27400016784668
1770765813340,,,-1.9350000619888306,-2.5540502071380615
1770765813341,10.686307070895753,6.067050457000732,,
1770765813382,,6.51300048828125,-7.260000228881836,-3.5500502586364746
1770765813422,,,,-6.50700044631958
1770765813423,,,,-6.6409502029418945
1770765813424,4.912828056893662,10.603950500488281,-4.435050010681152,
1770765813454,,9.55305004119873,-5.524050235748291,-4.41195011138916
1770765813483,,,,-4.788000106811523
1770765813484,1.408689671454196,8.055000305175781,-5.160000324249268,
1770765813513,,,-4.807950019836426,-5.491950035095215
1770765813514,,5.410950183868408,,
1770765813542,,,-9.412050247192383,-3.5400002002716064
1770765813543,3.2831514208079295,5.971950054168701,,
1770765813579,,6.240000247955322,,
1770765813603,,,,-0.028050001710653305
1770765813604,5.717630579049032,3.5440502166748047,-5.3710503578186035,-4.558050155639648
1770765813646,,,-8.553000450134277,0.8520000576972961
1770765813647,,4.116000175476074,-8.311050415039062,
1770765813685,,,,-3.3030002117156982
1770765813686,,3.0240001678466797,-6.163050174713135,-4.194000244140625
1770765813687,2.380491333101004,,,
1770765813714,,,,-4.594050407409668
1770765813715,,7.630950450897217,-3.727950096130371,
1770765813748,,7.906050205230713,-5.719950199127197,-5.049000263214111
1770765813749,5.615039059103143,,,
1770765813778,,5.794050216674805,-4.750950336456299,-5.773950099945068
1770765813806,,11.122050285339355,-3.388050079345703,-6.643050193786621
1770765813807,4.165208383318276,,,
1770765813846,,,,-7.395000457763672
1770765813847,,8.052000045776367,-3.0700502395629883,
1770765813867,,,,-3.295950174331665
1770765813868,1.8745249464319038,6.642000198364258,-7.207050323486328,
1770765813913,,8.272050857543945,-5.194050312042236,-1.9750500917434692
1770765813933,,8.176950454711914,-5.922000408172607,-0.44700002670288086
1770765813947,2.5948270836404763,8.569050788879395,-7.140000343322754,-1.3159500360488892
1770765813980,,6.697050094604492,-3.0289502143859863,-4.089000225067139
1770765813987,,,-4.40595006942749,-4.5960001945495605
1770765813988,,7.497000217437744,,
1770765814009,2.36844563806054,6.462000370025635,-7.6650004386901855,-5.061000347137451
1770765814051,,,-6.12000036239624,-1.1290500164031982
1770765814052,,6.838050365447998,-3.7950000762939453,
1770765814069,,,,-6.466050148010254
1770765814070,4.3528978363814845,8.031000137329102,-3.553950071334839,
1770765814101,,6.66795015335083,-7.111950397491455,-6.969000339508057
1770765814116,,4.8510003089904785,-5.191050052642822,-2.889000177383423
1770765814129,,,,-3.496950149536133
1770765814130,1.7385750168728509,7.474950313568115,-5.5600504875183105,
1770765814155,,10.57800006866455,-5.008950233459473,-1.852950096130371
1770765814180,,,,-6.454050540924072
1770765814181,,7.36305046081543,-4.689000129699707,
1770765814210,,,,-5.109000205993652
1770765814211,,,-5.215050220489502,-3.7200002670288086
1770765814212,1.240161419021775,7.915950298309326,,
1770765814249,,,,-4.294950008392334
1770765814250,,9.015000343322754,-5.2009501457214355,
1770765814270,,5.7870001792907715,-3.400050163269043,-3.8779501914978027
1770765814272,4.2260552346934235,4.657050132751465,-2.7799501419067383,-1.7299500703811646
1770765814316,,,-5.050050258636475,0.4210500121116638
1770765814317,,6.0859503746032715,,
1770765814331,1.8825208509285916,8.74905014038086,-5.686950206756592,-2.8369500637054443
1770765814377,,,,-4.285050392150879
1770765814378,,8.181000709533691,-4.516050338745117,-2.6550002098083496
1770765814393,,3.3450002670288086,-11.48805046081543,-4.675050258636475
1770765814394,5.032081866946266,,,
1770765814429,,2.69100022315979,-6.12000036239624,-4.786050319671631
1770765814451,,4.597050189971924,-8.40195083618164,-3.876000165939331
1770765814475,,,,-2.6929500102996826
1770765814476,3.276307661763658,7.861050605773926,-6.669000148773193,-1.3830000162124634
1770765814518,,,,-3.4020001888275146
1770765814519,,2.742000102996826,-4.344000339508057,
1770765814535,,3.418950080871582,-2.6730000972747803,-4.491000175476074
1770765814536,4.875762488572501,,,
1770765814582,,10.794000625610352,-13.083000183105469,-3.5119502544403076
1770765814595,,,,-2.9350502490997314
1770765814596,6.324813767658036,10.530000686645508,1.1260499954223633,
1770765814649,,9.520050048828125,-3.2280001640319824,-11.81505012512207
1770765814662,,5.695950508117676,-7.191000461578369,-0.2050500065088272
1770765814663,5.9262556717223305,,,
1770765814704,,,,0.9670500755310059
1770765814705,,4.801050186157227,-5.227050304412842,-5.494050025939941
1770765814721,,7.554000377655029,-9.180000305175781,-10.16295051574707
1770765814738,,8.881050109863281,-6.640050411224365,-1.2490500211715698
1770765814739,1.7624648178593225,,,
1770765814765,,10.414950370788574,-9.37695026397705,0.3540000021457672
1770765814793,,9.313950538635254,-5.44005012512207,-2.6040000915527344
1770765814808,,,,-6.0259504318237305
1770765814809,2.8990487741957733,7.468050479888916,-4.975950241088867,
1770765814854,,,,-5.323950290679932
1770765814855,,5.167050361633301,-4.597949981689453,
1770765814859,,4.912950038909912,-0.3550500273704529,-3.4590001106262207
1770765814860,3.682712356442323,,,
1770765814923,,,,-7.024050235748291
1770765814924,,5.791950225830078,-3.204000234603882,-1.204050064086914
1770765814925,0.957841335690229,,,
1770765814981,,,-3.9750001430511475,-5.530050277709961
1770765814982,,7.91295051574707,-3.5299501419067383,
1770765814983,,6.769050121307373,,
1770765815001,,,-4.947000026702881,-1.8880500793457031
1770765815002,2.312569900693439,8.181000709533691,,
1770765815035,,,,-5.464950084686279
1770765815036,,8.320050239562988,-5.038050174713135,
1770765815065,,,,-8.506050109863281
1770765815066,2.3184010245640123,7.426950454711914,-4.750950336456299,-1.4599500894546509
1770765815096,,9.838050842285156,-5.638950347900391,-5.085000038146973
1770765815122,,,,-1.327950119972229
1770765815123,3.4384502137942463,6.721050262451172,-7.612050533294678,-3.0259501934051514
1770765815143,,8.204999923706055,-7.5259504318237305,-5.026950359344482
1770765815184,,,-4.999950408935547,-3.069000244140625
1770765815185,,5.509050369262695,-7.0489501953125,
1770765815186,1.3514339848977082,,,
1770765815256,,,,-1.0909500122070312
1770765815257,,6.987000465393066,-5.461950302124023,-3.4830002784729004
1770765815268,3.6160103713705487,3.8620502948760986,-5.731950283050537,-4.539000034332275
1770765815313,,,,-5.81505012512207
1770765815314,,6.841050148010254,-8.419050216674805,-3.9160501956939697
1770765815325,,,-2.2990500926971436,-5.782050132751465
1770765815326,3.6967326816435144,5.490000247955322,,
1770765815364,,,,-5.640000343322754
1770765815365,,4.437000274658203,-2.845050096511841,
1770765815386,,5.778000354766846,-8.151000022888184,-3.2119500637054443
1770765815387,2.718349208009709,,,
1770765815422,,,,-4.624950408935547
1770765815423,,7.354950428009033,-5.356950283050537,
1770765815447,,8.44005012512207,-6.013050079345703,-7.627950191497803
1770765815448,2.0622060161648954,,,
1770765815477,,5.860950469970703,-8.182050704956055,-2.5420501232147217
1770765815528,,5.077950477600098,-8.380949974060059,-3.7579500675201416
1770765815529,3.989415111265394,7.197000503540039,,
1770765815585,,10.261950492858887,-7.078050136566162,-4.033950328826904
1770765815588,,,,-2.3479502201080322
1770765815589,2.485338995701284,6.1870503425598145,-3.6090002059936523,
1770765815640,,,-4.82295036315918,-4.660950183868408
1770765815641,,4.189949989318848,-4.4730000495910645,
1770765815650,,3.6040501594543457,-3.0990002155303955,-5.005950450897217
1770765815651,3.2635019510391037,,,
1770765815697,,5.701050281524658,-4.4509501457214355,-6.045000076293945
1770765815713,,10.008000373840332,-5.110050201416016,-5.1060004234313965
1770765815714,2.8386207686202103,,,
1770765815729,,12.027000427246094,-5.47605037689209,-3.5329501628875732
1770765815753,,10.434000968933105,-4.435050010681152,-4.3309502601623535
1770765815786,,2.9239501953125,-3.3480000495910645,1.50600004196167
1770765815795,2.644412061972078,7.8409504890441895,-2.2920000553131104,-6.007050514221191
1770765815852,,2.69100022315979,-2.704050064086914,-3.145050048828125
1770765815853,4.237346662149498,,,
1770765815913,,,,-3.967050075531006
1770765815914,,8.193000793457031,-7.636050224304199,-2.899050235748291
1770765815915,2.501731368398719,,,
1770765815937,,6.498000144958496,-5.980950355529785,-2.2860000133514404
1770765815969,,7.669050216674805,-3.034050226211548,-2.728950023651123
1770765815972,,,,-3.8710501194000244
1770765815973,1.812366612228768,6.02400016784668,-4.3720502853393555,
1770765815999,,7.369950294494629,-3.0700502395629883,-4.872000217437744
1770765816029,,,,-6.033000469207764
1770765816030,,5.514000415802002,-5.079000473022461,
1770765816055,,,,-4.932000160217285
1770765816056,1.600282185227711,5.6509504318237305,-4.726950168609619,
1770765816079,,6.484050273895264,-7.473000526428223,-8.374950408935547
1770765816116,,,-4.531050205230713,-5.587950229644775
1770765816117,1.0073947484245898,6.268050193786621,-5.167050361633301,
1770765816145,,4.047000408172607,-2.8950002193450928,-4.932000160217285
1770765816177,2.7626166064478057,8.359050750732422,-7.369950294494629,-4.999050140380859
1770765816208,,,-5.764050483703613,-3.4729502201080322
1770765816209,,7.150050163269043,,
1770765816236,,,-5.500050067901611,-6.736950397491455
1770765816237,2.5192212291095615,5.077950477600098,,
1770765816269,,,-5.586000442504883,-0.8400000333786011
1770765816270,,5.835000514984131,,
1770765816299,,,-7.44195032119751,-1.9480501413345337
1770765816300,,5.635950088500977,,
1770765816317,,,,-4.170000076293945
1770765816318,,6.6850504875183105,-6.823950290679932,
1770765816319,1.955534280615493,,,
1770765816337,,8.847000122070312,-8.433000564575195,-2.7169501781463623
1770765816377,2.752698614592735,10.65195083618164,-5.160000324249268,-2.808000087738037
1770765816407,,6.583950519561768,-6.072000503540039,-4.41195011138916
1770765816438,,4.53000020980835,-4.449000358581543,-8.125950813293457
1770765816439,5.412519226744863,,,
1770765816464,,8.694000244140625,-1.5520501136779785,-9.265050888061523
1770765816501,,10.092000007629395,-2.275050163269043,-6.280050277709961
1770765816502,14.693017580640133,,,
1770765816520,,,,-2.1250500679016113
1770765816521,,9.03600025177002,-5.104950428009033,
1770765816577,,9.0,-5.158050060272217,-6.576000213623047
1770765816578,,10.018050193786621,,
1770765816582,,,-6.39300012588501,-1.218000054359436
1770765816583,4.999640451855228,5.425950050354004,,
1770765816608,,,-4.870050430297852,-2.647050142288208
1770765816609,,7.357950210571289,,
1770765816629,,7.91295051574707,-7.240950107574463,-2.616000175476074
1770765816642,3.425018817265185,4.003050327301025,-6.520050525665283,-1.2990000247955322
1770765816673,,5.7370500564575195,-7.474950313568115,-0.5190000534057617
1770765816689,,8.365950584411621,-7.324950218200684,-2.476950168609619
1770765816702,,5.3710503578186035,-7.150050163269043,-2.8819501399993896
1770765816703,1.640696424110279,,,
1770765816739,,4.7220001220703125,-6.3259501457214355,-4.1010003089904785
1770765816762,,,-5.538000106811523,-4.675050258636475
1770765816763,1.327732028044433,7.834050178527832,,
1770765816791,,7.806000232696533,-4.285950183868408,-2.889000177383423
1770765816811,,8.16195011138916,-2.9380500316619873,-3.9810001850128174
1770765816844,,,,-6.591000080108643
1770765816845,,,-3.2350502014160156,-7.398000240325928
1770765816846,,5.134050369262695,,
1770765816847,3.999754302108304,,,
1770765816875,,,-4.42995023727417,-6.463950157165527
1770765816876,,6.637050151824951,,
1770765816903,,,,-6.949950218200684
1770765816904,3.432892086476442,7.813050270080566,-3.4390501976013184,-7.173000335693359
1770765816941,,,-5.437950134277344,-5.611950397491455
1770765816942,,5.410950183868408,,
1770765816961,,5.93595027923584,-6.148950099945068,-3.945000171661377
1770765816965,,6.807000160217285,-5.44005012512207,-3.9790501594543457
1770765816966,1.2344367096360371,,,
1770765816991,,6.781050205230713,-6.871950149536133,-4.735050201416016
1770765817009,,9.723000526428223,-6.4170002937316895,-2.110949993133545
1770765817026,,,,0.44700002670288086
1770765817027,3.893163503988321,6.094050407409668,-5.697000503540039,
1770765817069,,8.241000175476074,-6.23805046081543,-4.048050403594971
1770765817107,,,-14.419050216674805,-3.9210002422332764
1770765817108,2.659703063453172,8.077950477600098,-3.1440000534057617,
1770765817142,,7.968000411987305,-4.61400032043457,-2.5879502296447754
1770765817169,2.181184206956793,8.044950485229492,-4.6650004386901855,-4.338000297546387
1770765817198,,7.080000400543213,-4.594950199127197,-5.503950119018555
1770765817213,,7.839000225067139,-4.357950210571289,-6.775050163269043
1770765817230,4.529885974653157,9.067049980163574,-5.455050468444824,-8.173049926757812
1770765817277,,8.755949974060059,-3.9270002841949463,-6.820950508117676
1770765817289,,,,-5.503950119018555
1770765817290,5.579465902602218,10.954050064086914,-4.228950023651123,
1770765817343,,,,-8.116050720214844
1770765817344,,,-5.335050106048584,-3.556950092315674
1770765817345,,11.281950950622559,,
1770765817375,,,,-5.785950183868408
1770765817376,1.16617244515744,7.73805046081543,-5.941050052642822,-1.01895010471344
1770765817395,,10.291050910949707,-5.124000072479248,-5.968050479888916
1770765817412,,7.456050395965576,-7.945050239562988,-1.0960500240325928
1770765817432,1.638569152304023,9.034049987792969,-4.5420002937316895,-4.741950035095215
1770765817461,,5.128950119018555,-6.78795051574707,-3.5520002841949463
1770765817478,,6.510000228881836,-4.815000057220459,-4.788000106811523
1770765817493,0.9907855544563016,6.727950096130371,-5.728050231933594,-5.251950263977051
1770765817546,,5.647950172424316,-4.114050388336182,-3.3109500408172607
1770765817555,,,,-3.5329501628875732
1770765817556,0.841269839252673,5.502000331878662,-6.943950176239014,
1770765817592,,,,-4.813950061798096
1770765817593,,9.508050918579102,-4.150050163269043,
1770765817622,,6.397950172424316,-5.068950176239014,-5.736000061035156
1770765817634,,6.948000431060791,-3.5250000953674316,-5.035050392150879
1770765817635,1.3924718444415891,,,
1770765817673,,6.8959503173828125,-5.344950199127197,-5.407950401306152
1770765817694,,,,-4.246950149536133
1770765817695,1.5155573564358997,7.140000343322754,-5.785050392150879,
1770765817732,,4.839000225067139,-3.4429502487182617,-5.089950084686279
1770765817748,,,,-5.719050407409668
1770765817749,,6.711000442504883,-6.439050197601318,
1770765817754,,,-6.811950206756592,-2.473050117492676
1770765817755,1.8067461962397908,3.951000213623047,,
1770765817784,,,,-3.5430002212524414
1770765817785,,6.723000526428223,-5.400000095367432,
1770765817815,,,,-2.4820501804351807
1770765817816,,3.939000129699707,-6.562950134277344,
1770765817817,3.712777221810043,7.6810503005981445,,-5.2669501304626465
1770765817838,,,,-2.9040000438690186
1770765817839,,4.461000442504883,-9.22605037689209,
1770765817883,,7.521000385284424,-6.244950294494629,-4.05495023727417
1770765817898,,,-9.949050903320312,-4.243950366973877
1770765817899,4.194586607577877,10.267050743103027,,
1770765817954,,8.292000770568848,-6.3259501457214355,-5.218950271606445
1770765817959,4.3075752334091035,5.887950420379639,-1.1790000200271606,-6.469050407409668
1770765817992,,8.845050811767578,-5.731950283050537,-10.551000595092773
1770765818003,,5.098050117492676,-5.104950428009033,-1.5169501304626465
1770765818018,,7.9110002517700195,-3.289950132369995,-5.487000465393066
1770765818019,2.1043946422796562,,,
1770765818060,,9.877050399780273,-4.803000450134277,-5.236050128936768
1770765818081,,7.4659504890441895,-4.507050037384033,-3.888000249862671
1770765818082,1.034772117885266,,,
1770765818118,,,,-4.4070000648498535
1770765818119,,6.631950378417969,-4.770000457763672,
1770765818151,,5.995050430297852,-3.961050271987915,-2.0269501209259033
1770765818160,,,,-2.6620500087738037
1770765818161,2.623763837845992,7.090050220489502,-7.63800048828125,
1770765818193,,,,-5.748000144958496
1770765818194,,8.677050590515137,-3.8460001945495605,
1770765818223,,6.052950382232666,-6.682950496673584,-0.3850500285625458
1770765818224,2.1554392520535606,,,
1770765818278,,,,-3.306000232696533
1770765818279,,5.919000148773193,-8.764050483703613,-3.166950225830078
1770765818281,,,,-1.01895010471344
1770765818282,2.0160983217423025,6.261000156402588,-5.608050346374512,
1770765818334,,,-5.866950511932373,-3.970950126647949
1770765818335,,7.819950580596924,-6.7069501876831055,
1770765818342,,,-4.935000419616699,-4.764000415802002
1770765818343,2.6581682347257902,5.536050319671631,,
1770765818391,,,,-6.253050327301025
1770765818392,,5.773050308227539,-5.803950309753418,
1770765818419,,,-4.489950180053711,-5.691000461578369
1770765818420,,7.180950164794922,,
1770765818424,,,-4.62600040435791,-5.4370503425598145
1770765818425,2.161874263837192,8.275050163269043,,
1770765818445,,6.1180500984191895,-3.769050121307373,-5.212050437927246
1770765818486,,,,-5.331000328063965
1770765818487,4.649578666056806,6.682950496673584,-6.22605037689209,
1770765818548,,,,-4.029000282287598
1770765818549,,9.120000839233398,-6.046050071716309,-3.4180500507354736
1770765818550,1.9761577689396357,,,
1770765818601,,3.9100501537323,-6.433950424194336,-2.5009500980377197
1770765818606,,,,-4.0410003662109375
1770765818607,0.34715468412110184,5.155050277709961,-6.9559502601623535,
1770765818664,,,,-3.8370001316070557
1770765818665,,8.41604995727539,-5.5219502449035645,
1770765818666,,7.723950386047363,,
1770765818686,,,,-3.945000171661377
1770765818687,,12.618000984191895,-14.515050888061523,-6.268050193786621
1770765818688,8.407884403439521,5.76300048828125,,
1770765818721,,,0.19005000591278076,0.6030000448226929
1770765818722,,5.731950283050537,,
1770765818749,,6.948000431060791,-4.746000289916992,-3.1960501670837402
1770765818750,2.963742821989212,,,
1770765818780,,7.06095027923584,-5.136000156402588,-9.082950592041016
1770765818798,,7.437000274658203,-4.474950313568115,-5.053950309753418
1770765818808,,,-6.7950005531311035,-1.6990500688552856
1770765818809,1.7941344218081448,7.819950580596924,,
1770765818830,,6.309000492095947,-4.042050361633301,-4.4569501876831055
1770765818869,,8.782050132751465,-3.871950149536133,-4.729950428009033
1770765818870,1.8834487663047275,,,
1770765818890,,9.345000267028809,-6.184950351715088,-4.419000148773193
1770765818938,,7.6620001792907715,-6.3409504890441895,-2.9130001068115234
1770765818953,,9.78600025177002,-3.075000047683716,-4.102950096130371
1770765818954,2.5384855113642564,,,
1770765818993,,7.5010504722595215,-5.794950485229492,-5.583000183105469
1770765819011,,7.056000232696533,-6.702000141143799,-5.845950126647949
1770765819012,2.1893324669864502,,,
1770765819048,,7.293000221252441,-2.0880000591278076,-5.758050441741943
1770765819072,,,-4.3560004234313965,0.7849500179290771
1770765819073,2.030238912269577,5.908950328826904,,
1770765819091,,3.8770501613616943,-1.477950096130371,-1.9939501285552979
1770765819136,,,,-4.5199503898620605
1770765819137,5.627674738417793,7.357950210571289,-4.516050338745117,-4.929000377655029
1770765819159,,8.806050300598145,-4.72005033493042,-6.948000431060791
1770765819198,,9.307050704956055,-3.727950096130371,-6.349050521850586
1770765819216,,,-3.702000141143799,-7.108050346374512
1770765819217,3.4538821948028526,6.163050174713135,,
1770765819269,,,,-2.3479502201080322
1770765819270,,4.762050151824951,-5.389950275421143,
1770765819275,,10.000950813293457,-7.698000431060791,-1.9150501489639282
1770765819276,4.689349000562046,,,
1770765819294,,,,-2.892000198364258
1770765819295,,7.992000579833984,-6.379050254821777,
1770765819323,,7.132950305938721,-9.106050491333008,-3.1620001792907715
1770765819335,3.540860491982371,6.484050273895264,-8.551050186157227,-3.280050039291382
1770765819363,,5.779950141906738,-7.5450005531311035,-2.829000234603882
1770765819379,,7.159050464630127,-7.282050132751465,-2.2360501289367676
1770765819395,,,,-4.335000038146973
1770765819396,0.3976353817843317,6.862050533294678,-6.879000186920166,
1770765819427,,5.473950386047363,-5.2420501708984375,-4.2900004386901855
1770765819479,,,,-4.789950370788574
1770765819480,,4.42995023727417,-1.8870000839233398,-2.9710500240325928
1770765819481,0.7980907366514368,,,
1770765819539,,6.048000335693359,-5.929050445556641,-6.1650004386901855
1770765819540,,6.951000213623047,,
1770765819541,2.258903160792345,,,
1770765819562,,,-3.580050230026245,-5.305050373077393
1770765819563,,8.220000267028809,,
1770765819598,,,,-4.741950035095215
1770765819599,,9.844950675964355,-5.014050006866455,-6.205050468444824
1770765819600,2.302860893934752,,,
1770765819636,,9.31605052947998,-3.7600502967834473,-4.9170002937316895
1770765819654,,8.122050285339355,-4.573950290679932,-5.353050231933594
1770765819660,2.8195441300966544,7.534950256347656,-4.223999977111816,-2.521050214767456
1770765819697,,11.014050483703613,-5.746950149536133,-4.03095006942749
1770765819710,,8.49000072479248,-5.1220502853393555,-2.476950168609619
1770765819740,,,,-3.280050039291382
1770765819741,1.5951934710268576,9.301950454711914,-6.22605037689209,
1770765819765,,11.026050567626953,-7.111950397491455,-6.210000514984131
1770765819801,,,,-3.9589502811431885
1770765819802,,2.653050184249878,-5.263050079345703,-0.9739500284194946
1770765819803,7.946660080380025,,,
1770765819826,,,-4.693050384521484,-6.711000442504883
1770765819827,,7.743000507354736,,
1770765819864,,,-2.512050151824951,-7.909950256347656
1770765819865,2.21976823679533,10.534950256347656,,
1770765819900,,,,-5.410050392150879
1770765819901,,9.204000473022461,-3.034050226211548,
1770765819922,,,,-6.22005033493042
1770765819923,3.059574520474684,8.842050552368164,-5.005050182342529,-5.154000282287598
1770765819966,,6.847950458526611,-4.333950042724609,-4.837950229644775
1770765819984,,8.220000267028809,-5.301000118255615,-5.635050296783447
1770765820004,,,,-2.1450002193450928
1770765820005,1.5082118637041253,2.4880502223968506,-5.646000385284424,
1770765820032,,,-4.0489501953125,-2.8939502239227295
1770765820033,,6.702000141143799,,
1770765820064,,,,-6.202950477600098
1770765820065,4.804396904321895,8.083050727844238,-5.638950347900391,-0.8730000257492065
1770765820096,,,,-5.551950454711914
1770765820097,,9.544050216674805,-6.934050559997559,
1770765820128,4.467079970942637,3.8449501991271973,-11.718000411987305,0.559950053691864
1770765820148,,8.299050331115723,-9.475050926208496,1.4719500541687012
1770765820173,,7.189950466156006,-6.295050144195557,-5.487000465393066
1770765820186,1.6571684396112702,10.342950820922852,-5.469000339508057,-5.137050151824951
1770765820237,,,,-4.555950164794922
1770765820238,,5.505000114440918,-6.139050483703613,-6.859050273895264
1770765820258,,,,-5.698050498962402
1770765820259,,4.534950256347656,-2.0119500160217285,
1770765820273,,,,-5.281050205230713
1770765820274,3.106101608569621,7.281000137329102,-3.1470000743865967,
1770765820302,,5.398950099945068,-3.6570000648498535,-4.735050201416016
1770765820317,,7.702950477600098,-6.76200008392334,-5.695050239562988
1770765820331,2.801995220477039,9.337950706481934,-5.2009501457214355,-5.782050132751465
1770765820369,,5.7300004959106445,-4.273950099945068,-1.735050082206726
1770765820388,2.931979084236931,6.7759504318237305,-7.849050521850586,-2.31000018119812
1770765820424,,6.073950290679932,-7.393950462341309,-4.117949962615967
1770765820436,,8.45895004272461,-6.154050350189209,-2.5849502086639404
1770765820449,0.6005293160396628,5.9070000648498535,-7.7440505027771,-5.169000148773193
1770765820479,,,,-3.186000108718872
1770765820480,,6.529050350189209,-5.392050266265869,
1770765820503,,,-6.810000419616699,-3.5430002212524414
1770765820504,,6.7159504890441895,,
1770765820530,,,,-5.020050048828125
1770765820531,0.7633452436470245,6.276000499725342,-5.151000022888184,
1770765820570,,,,-3.52905011177063
1770765820571,,8.430000305175781,-6.2659502029418945,
1770765820590,,,-3.6130502223968506,-3.7819502353668213
1770765820591,2.503104285298524,5.422950267791748,,
1770765820637,,,,-2.616000175476074
1770765820638,,4.4730000495910645,-2.139000177383423,-6.004050254821777
1770765820651,,5.574000358581543,-5.7370500564575195,-5.149050235748291
1770765820652,1.3437231194224992,,,
1770765820700,,,-6.727950096130371,-8.0110502243042
1770765820701,,7.683000564575195,,
1770765820713,1.2334919921961438,8.293950080871582,-6.295050144195557,-5.298000335693359
1770765820756,,5.887950420379639,-6.253950119018555,-4.548000335693359
1770765820757,,7.090050220489502,,
1770765820771,,7.818000316619873,-8.46405029296875,-4.03095006942749
1770765820793,3.3483511382699707,8.008950233459473,-7.489950180053711,-3.2479500770568848
1770765820842,,,,-4.591950416564941
1770765820843,,,,-3.1330502033233643
1770765820844,,7.789050579071045,-6.360000133514404,
1770765820858,2.8408449866258296,4.5520501136779785,-4.617000102996826,-2.7580502033233643
1770765820910,,,-8.467050552368164,-4.077000141143799
1770765820911,,5.257950305938721,,
1770765820914,,,,-1.4140501022338867
1770765820915,3.0313786744797855,6.502950191497803,-1.0660500526428223,
1770765820972,,8.608050346374512,-4.404000282287598,-4.703999996185303
1770765820975,2.1600098931121323,8.743950843811035,-5.143050193786621,-5.676000118255615
1770765821003,,,,-5.925000190734863
1770765821004,,7.381950378417969,-4.477950096130371,
1770765821029,,,-5.656050205230713,-7.666050434112549
1770765821030,,8.560050010681152,,
1770765821048,,,-2.803950071334839,-5.347950458526611
1770765821049,,7.377000331878662,,
1770765821066,,9.36405086517334,-5.395050048828125,-4.876049995422363
1770765821067,1.8700957055513905,,,
1770765821097,,7.908000469207764,-3.8740501403808594,-4.024050235748291
1770765821109,,5.83305025100708,-5.308950424194336,2.052000045776367
1770765821117,,9.928950309753418,-6.250050067901611,-5.779050350189209
1770765821118,3.2924043979538005,,,
1770765821138,,,,-1.1700000762939453
1770765821139,,2.3080501556396484,-7.672050476074219,
1770765821173,,,,-2.857950210571289
1770765821174,,6.109950065612793,-3.7450501918792725,
1770765821179,,6.340050220489502,-8.317950248718262,-3.4180500507354736
1770765821180,1.7426192086598784,,,
1770765821203,,4.906050205230713,-6.154050350189209,3.9619503021240234
1770765821239,,,,-1.672950029373169
1770765821240,,7.285950183868408,-7.198050498962402,
1770765821241,2.2233545584096843,,,
1770765821304,,5.350950241088867,-6.535050392150879,-4.366950035095215
1770765821319,,,,-2.959050178527832
1770765821320,1.036241473541337,8.392050743103027,-5.7370500564575195,
1770765821366,,,-5.151000022888184,-6.154950141906738
1770765821367,,8.457000732421875,,
1770765821381,3.1370780995514833,6.798000335693359,-5.212950229644775,-7.108050346374512
1770765821415,,7.414950370788574,-6.28095006942749,
1770765821441,,,,-4.843050003051758
1770765821442,2.1734057184853395,7.396050453186035,-4.9519500732421875,-6.046950340270996
1770765821469,,7.0819501876831055,-5.4120001792907715,-5.263950347900391
1770765821502,,,,-6.214950084686279
1770765821503,1.2749757427825197,7.41795015335083,-4.813050270080566,
1770765821523,,7.657050132751465,-7.104000568389893,-4.306950092315674
1770765821577,,,,-3.955050230026245
1770765821578,,7.9830002784729,-7.839000225067139,-0.12105000764131546
1770765821579,,7.189950466156006,,
1770765821581,,,-5.124000072479248,-4.339950084686279
1770765821582,2.423150200603305,8.998050689697266,,
1770765821611,,8.9239501953125,-6.204000473022461,-5.511000156402588
1770765821635,,6.6469502449035645,-5.767950057983398,-0.28395000100135803
1770765821643,,,,-2.740950107574463
1770765821644,1.4244416933401767,7.990050315856934,-3.859950065612793,
1770765821691,,10.968000411987305,-3.9100501537323,-3.5880000591278076
1770765821705,,5.392050266265869,-2.742000102996826,-6.031050205230713
1770765821706,2.8683148488304915,,,
1770765821744,,5.9160003662109375,-4.159049987792969,-7.567950248718262
1770765821765,,,,-6.078000068664551
1770765821766,1.9854973450073536,7.918050289154053,-2.7750000953674316,
1770765821799,,,-3.391050100326538,-2.7430500984191895
1770765821800,,7.651950359344482,,
1770765821804,,,,-2.82705020904541
1770765821805,,,-1.588050127029419,
1770765821806,,8.1739501953125,,
1770765821847,,,-3.970050096511841,-2.568000078201294
1770765821848,,9.370950698852539,-5.977050304412842,
1770765821849,3.721799097320137,,,
1770765821908,,,,-1.4689500331878662
1770765821910,5.3349004271062705,6.781050205230713,-4.735949993133545,
1770765821963,,,,-2.857950210571289
1770765821964,,7.651950359344482,-4.009050369262695,
1770765821968,4.996114747194931,7.678950309753418,-10.915950775146484,-5.725950241088867
1770765822006,,,,-2.659050226211548
1770765822007,,4.750050067901611,-2.6580002307891846,
1770765822018,,6.472050189971924,-7.6620001792907715,-3.3990001678466797
1770765822028,,7.782000541687012,-6.6660003662109375,-4.873950004577637
1770765822029,2.5537472549102564,,,
1770765822052,,5.014050006866455,-8.590950012207031,0.6919500231742859
1770765822073,,,-6.594000339508057,-3.307950258255005
1770765822074,,6.534000396728516,,
1770765822110,,8.646000862121582,-5.814000129699707,-4.243950366973877
1770765822111,0.9887103931967618,,,
1770765822129,,,,-4.230000019073486
1770765822130,,4.9110002517700195,-3.6160502433776855,
1770765822176,,3.309000253677368,-4.641000270843506,-6.982950210571289
1770765822177,2.2978460633633198,5.7109503746032715,,
1770765822207,,6.313950061798096,-3.7159502506256104,-6.718050479888916
1770765822231,,,-6.5460004806518555,-6.745950222015381
1770765822232,2.001570800001697,7.873050212860107,-5.2819504737854,
1770765822257,,5.25600004196167,-3.630000114440918,-6.457050323486328
1770765822292,,,-6.697050094604492,-1.5919500589370728
1770765822293,3.0655953470987196,8.047050476074219,,
1770765822317,,,,-2.1349501609802246
1770765822318,,6.352050304412842,-3.3139500617980957,
1770765822354,,,-5.538000106811523,-5.662050247192383
1770765822355,,7.686000347137451,,
1770765822374,0.7254763863215246,5.802000045776367,-4.746000289916992,-4.603950023651123
1770765822408,,5.974050521850586,-8.266050338745117,-3.6510002613067627
1770765822440,5.193779144021721,8.905050277709961,-7.7440505027771,-1.3690500259399414
1770765822470,,8.317950248718262,-3.8389501571655273,-5.130000114440918
1770765822494,,,,-2.2210500240325928
1770765822495,,0.5749500393867493,-1.2690000534057617,
1770765822496,5.178128889746578,3.151050090789795,,
1770765822515,,6.534000396728516,-2.625000238418579,-5.463000297546387
1770765822556,,,-7.528050422668457,-8.31195068359375
1770765822557,2.5258116522344807,8.896950721740723,,
1770765822586,,6.60105037689209,-3.160950183868408,-5.865000247955322
1770765822611,,6.979950428009033,-1.6980000734329224,-0.25995001196861267
1770765822624,,,,-3.604950189590454
1770765822625,,9.855000495910645,-5.974050521850586,
1770765822636,,10.06095027923584,-7.480050563812256,-6.50700044631958
1770765822637,4.245792550192774,,,
1770765822677,,,,-0.6670500040054321
1770765822678,,2.434950113296509,-4.087950229644775,-3.9880502223968506
1770765822696,,,,-3.766050100326538
1770765822697,2.496197861006115,7.032000541687012,-7.792050361633301,
1770765822720,,9.82395076751709,-6.4960503578186035,-4.5769500732421875
1770765822761,,2.5380001068115234,-3.7789502143859863,-2.0490000247955322
1770765822762,0.6071024358340795,5.742000102996826,,
1770765822790,,7.846050262451172,-7.630950450897217,-5.178000450134277
1770765822807,,,,-4.129050254821777
1770765822808,,6.5560503005981445,-5.419050216674805,
1770765822819,2.129954004999997,6.373950481414795,-2.8380000591278076,-2.9629502296447754
1770765822844,,,,-3.5520002841949463
1770765822845,,6.193950176239014,-1.831950068473816,
1770765822899,,,-6.148950099945068,-4.339950084686279
1770765822900,,6.229950428009033,-6.553950309753418,
1770765822901,2.2937980334998,,,
1770765822923,,7.300050258636475,-5.986050128936768,-4.965000152587891
1770765822954,,9.76200008392334,-7.717050552368164,-4.132050037384033
1770765822967,1.3307269918146545,6.919950485229492,-4.497000217437744,-3.3700501918792725
1770765822999,,6.103050231933594,-6.211050510406494,-3.766050100326538
1770765823007,,9.916950225830078,-10.285950660705566,-5.568000316619873
1770765823020,3.373948816559056,10.414950370788574,-4.516050338745117,-6.223950386047363
1770765823062,,,0.33105000853538513,3.20805025100708
1770765823063,,-0.820050060749054,,-6.1020002365112305
1770765823064,,10.426950454711914,-5.143050193786621,
1770765823082,,,,-9.009000778198242
1770765823083,11.081729361745515,9.478950500488281,-8.443050384521484,
1770765823118,,7.321950435638428,-4.0759501457214355,-2.319000005722046
1770765823124,,,,-3.0949501991271973
1770765823125,,9.345000267028809,-2.1910500526428223,
1770765823166,,,,-6.6910505294799805
1770765823167,3.306873797753706,10.497000694274902,-5.57895040512085,-3.2940001487731934
1770765823201,,5.944950103759766,-3.30495023727417,-3.805950164794922
1770765823216,,8.148000717163086,-5.104950428009033,-5.110950469970703
1770765823230,,,,-6.828000545501709
1770765823231,2.0467949771526492,7.5450005531311035,-5.5410003662109375,
1770765823259,,2.0329501628875732,-3.223050117492676,2.997000217437744
1770765823283,,,,-5.008050441741943
1770765823284,1.1449887659946036,6.4860005378723145,-4.618950366973877,-6.985950469970703
1770765823327,,,,-3.643050193786621
1770765823328,,9.838050842285156,-6.823950290679932,
1770765823345,4.0937602501660795,5.703000068664551,-3.9150002002716064,-5.467950344085693
1770765823392,,,,-0.046950001269578934
1770765823393,,5.872950077056885,-3.1300501823425293,
1770765823409,,10.272000312805176,-9.184950828552246,-5.566050052642822
1770765823426,,,,-3.9160501956939697
1770765823427,5.041819210214338,4.750050067901611,-4.027950286865234,
1770765823449,,,,-2.968050241470337
1770765823450,,9.031050682067871,-5.263050079345703,
1770765823487,2.690056582851988,4.875,-4.677000045776367,-3.367950201034546
1770765823527,,5.742000102996826,-4.879950046539307,-3.06600022315979
1770765823548,,8.131050109863281,-7.510950565338135,-6.847050189971924
1770765823549,2.2812184370809874,,,
1770765823598,,4.180950164794922,-5.886000156402588,-2.1660001277923584
1770765823609,1.1315415191180194,5.176950454711914,-3.7860002517700195,-2.0340001583099365
1770765823661,,,,-5.479950428009033
1770765823662,,7.908000469207764,-8.457000732421875,-4.105950355529785
1770765823668,,6.98205041885376,-6.709050178527832,-4.965000152587891
1770765823689,2.7448424612674063,6.426000118255615,-6.277950286865234,-2.140050172805786
1770765823723,,4.545000076293945,-5.469000339508057,-4.249050140380859
1770765823731,,10.465950965881348,-9.618000030517578,-5.6449503898620605
1770765823750,1.8663618105631252,4.948950290679932,-5.905050277709961,-3.43500018119812
1770765823780,,,,-2.4060001373291016
1770765823781,,6.699000358581543,-2.614950180053711,
1770765823797,,6.421950340270996,-3.931950092315674,-3.8449501991271973
1770765823810,3.7406058582654294,8.3899507522583,-7.489950180053711,-4.515000343322754
1770765823835,,6.373950481414795,-6.745050430297852,-8.200050354003906
1770765823863,,,,-6.009000301361084
1770765823864,,4.494000434875488,-3.6540002822875977,
1770765823872,,6.312000274658203,-2.4019501209259033,-1.7470500469207764
1770765823873,3.6481776665706995,,,
1770765823934,,,-6.760050296783447,-2.8150501251220703
1770765823935,,7.534950256347656,-8.613000869750977,
1770765823956,,6.892950534820557,-4.540050029754639,-4.108050346374512
1770765823957,1.6963422609902485,,,
1770765823997,,,,0.687000036239624
1770765823998,,,-4.080000400543213,-4.2370500564575195
1770765823999,,,-4.471050262451172,
1770765824000,,5.7270002365112305,,
1770765824013,,5.998050212860107,-7.012950420379639,-4.82895040512085
1770765824014,1.594578845347812,,,
1770765824056,,6.77400016784668,-5.170050144195557,-4.302000045776367
1770765824073,,,,-2.6640000343322754
1770765824074,1.5999143726562848,6.532050132751465,-5.0209503173828125,
1770765824110,,,,-4.2370500564575195
1770765824111,,7.803000450134277,-8.42805004119873,
1770765824132,,,-5.3110504150390625,-5.1660003662109375
1770765824133,,4.873050212860107,,
1770765824135,,,,-5.64300012588501
1770765824136,3.8321758402417063,9.052950859069824,-10.111950874328613,
1770765824163,,,,-3.6190502643585205
1770765824164,,9.418950080871582,-7.06095027923584,
1770765824200,,7.011000156402588,-3.7260000705718994,-3.3390002250671387
1770765824216,1.704678588060673,6.571950435638428,-8.974050521850586,-3.0109500885009766
1770765824267,,,,-3.885000228881836
1770765824268,,4.755000114440918,-4.531050205230713,
1770765824279,,,-2.115000009536743,-3.6670501232147217
1770765824280,5.282676007669026,2.754000186920166,,
1770765824329,,15.180000305175781,-19.131000518798828,-5.473050117492676
1770765824337,4.5841308362307505,4.444050312042236,0.690000057220459,-3.982950210571289
1770765824385,,,,-6.2749505043029785
1770765824386,,4.855950355529785,-5.8470001220703125,
1770765824398,,,,-5.860950469970703
1770765824399,3.294482913622691,4.992000102996826,-7.705050468444824,
1770765824439,,4.123050212860107,-3.859950065612793,-2.2740001678466797
1770765824440,,9.697050094604492,,
1770765824470,,6.379050254821777,-2.9170501232147217,-6.20805025100708
1770765824489,2.0561034686626147,8.839950561523438,-5.409000396728516,-5.755050182342529
1770765824536,,9.436050415039062,-8.329950332641602,-5.299950122833252
1770765824540,2.849942016011713,10.1089506149292,-5.457000255584717,-4.680000305175781
1770765824602,,,,-2.959050178527832
1770765824603,,,-2.4090001583099365,-4.441050052642822
1770765824604,,8.656050682067871,-3.139050245285034,
1770765824605,1.8500417910830182,,,
1770765824659,,5.9569501876831055,-5.638950347900391,-7.458000183105469
1770765824661,1.181233637055593,6.799950122833252,-5.233950138092041,-4.299000263214111
1770765824714,,,-7.903950214385986,4.32105016708374
1770765824715,,9.091050148010254,-4.444050312042236,
1770765824738,,,,-2.2639501094818115
1770765824740,,5.050050258636475,-5.136000156402588,
1770765824743,,,-2.3490002155303955,-5.809950351715088
1770765824744,7.579916830688596,15.010050773620605,,
1770765824774,,-8.812050819396973,7.1260504722595215,11.45205020904541
1770765824805,5.213004415791579,10.168950080871582,0.7290000319480896,-4.234950065612793
1770765824826,,1.9560000896453857,-9.015000343322754,-8.125950813293457
1770765824865,3.5765903963440118,3.919950246810913,-10.918050765991211,-2.242950201034546
1770765824926,,8.413949966430664,-4.6650004386901855,0.39705002307891846
1770765824927,3.5328736749993506,,,
1770765824988,,6.829050540924072,-8.629950523376465,-2.539950132369995
1770765824989,,7.855950355529785,,
1770765825005,,,,-4.680000305175781
1770765825006,,3.2470500469207764,-2.3490002155303955,
1770765825007,3.359394446028383,,,
1770765825046,,,-6.853050231933594,-3.8710501194000244
1770765825047,,5.871000289916992,,
1770765825068,0.6143937195558101,7.336050510406494,-4.162050247192383,-4.90500020980835
1770765825099,,7.105950355529785,-5.220000267028809,-5.322000026702881
1770765825128,,,,-4.218000411987305
1770765825129,,,-3.7789502143859863,-6.292050361633301
1770765825130,,6.98205041885376,-7.573950290679932,
1770765825131,2.0811766969527623,,,
1770765825154,,,-7.204950332641602,-4.9870500564575195
1770765825155,,6.927000522613525,,
1770765825188,,5.167050361633301,-0.8500500321388245,-5.857950210571289
1770765825189,2.896904964353777,,,
1770765825208,,,-4.903950214385986,-6.292050361633301
1770765825209,,3.829050064086914,,
1770765825265,,3.687000274658203,-6.357000350952148,-4.366950035095215
1770765825281,,,,-4.659000396728516
1770765825282,5.586335110685007,10.954050064086914,-9.907950401306152,
1770765825319,,,-8.163000106811523,-7.255950450897217
1770765825320,,9.56505012512207,,
1770765825329,,,,-3.624000072479248
1770765825330,3.1405890163808463,3.8770501613616943,-4.341000080108643,
1770765825376,,6.5560503005981445,-8.008950233459473,-1.9459501504898071
1770765825390,,,,-1.1370000839233398
1770765825391,,6.109950065612793,-5.2819504737854,
1770765825392,4.115230435377208,,,
1770765825416,,7.747950553894043,-5.0119500160217285,-3.9280502796173096
1770765825433,,,,-5.554050445556641
1770765825434,,8.020950317382812,-5.93595027923584,
1770765825451,3.393293605064752,8.869050025939941,-6.180000305175781,-5.7960004806518555
1770765825477,,9.478950500488281,-4.624050140380859,-5.4559502601623535
1770765825533,,,-2.4210000038146973,-5.130000114440918
1770765825534,,9.859950065612793,-2.221950054168701,
1770765825535,,7.783950328826904,,
1770765825536,4.639613391291811,,,
1770765825595,,,,-6.3349504470825195
1770765825596,,6.115050315856934,-2.4240000247955322,-3.2989501953125
1770765825597,15.437003309159204,19.152000427246094,,
1770765825611,,,,-3.6480002403259277
1770765825612,,8.542950630187988,2.139000177383423,
1770765825649,,-14.068050384521484,5.196000099182129,22.009950637817383
1770765825654,6.2250855344234965,8.754000663757324,-1.9780501127243042,-4.717950344085693
1770765825682,,10.422000885009766,-6.568050384521484,-10.576950073242188
1770765825704,,1.908000111579895,-8.562000274658203,-0.7320000529289246
1770765825714,,4.126049995422363,-2.5890002250671387,-2.149049997329712
1770765825715,4.688360313304446,,,
1770765825747,,2.365950107574463,-4.401000022888184,0.016050001606345177
1770765825763,,8.995950698852539,-5.689050197601318,-3.1930501461029053
1770765825795,,,,-6.049950122833252
1770765825796,5.8333373296814806,12.127050399780273,-10.006050109863281,
1770765825822,,7.135050296783447,-4.42995023727417,-1.9939501285552979
1770765825856,,,,-2.2519500255584717
1770765825857,2.4701676945768387,5.827950477600098,-8.09595012664795,-3.8779501914978027
1770765825886,,2.4880502223968506,-5.878050327301025,-4.246950149536133
1770765825920,1.6896186527020935,2.5789501667022705,-5.565000057220459,-2.5350000858306885
1770765825949,,4.1449503898620605,-5.047950267791748,-5.080050468444824
1770765825977,,6.373950481414795,-9.112950325012207,-5.923050403594971
1770765825978,1.354100705031934,,,
1770765826015,,,,-4.531949996948242
1770765826016,,6.010050296783447,-4.6210503578186035,
1770765826017,,7.578000545501709,-5.9569501876831055,-6.190950393676758
1770765826058,,,,-5.011050224304199
1770765826059,2.4814911424892667,9.016950607299805,-5.313000202178955,-5.158950328826904
1770765826090,,6.2470502853393555,-4.2460503578186035,-6.3510003089904785
1770765826125,2.964621795669293,6.357000350952148,-5.203050136566162,-8.113950729370117
1770765826158,,,,-5.070000171661377
1770765826159,,5.46405029296875,-3.7930502891540527,
1770765826181,,6.2659502029418945,-5.035950183868408,-3.684000253677368
1770765826182,2.696066753613754,6.738000392913818,,
1770765826199,,,,-3.6220502853393555
1770765826200,,7.401000499725342,-8.2339506149292,
1770765826242,4.042978185375463,6.67995023727417,-6.8460001945495605,-5.044050216674805
1770765826285,,,-6.582000255584717,-3.925950288772583
1770765826286,,9.570000648498535,,
1770765826309,,,,-1.612950086593628
1770765826310,,7.62600040435791,-5.1820502281188965,
1770765826323,,,,-1.828950047492981
1770765826324,2.5341288831612667,8.325000762939453,-5.146050453186035,
1770765826358,,8.4660005569458,-3.724050283432007,-4.965000152587891
1770765826363,,6.889050483703613,-3.6160502433776855,-9.270000457763672
1770765826390,,,-2.076000213623047,-11.04900074005127
1770765826391,6.684239528544079,6.343050479888916,,
1770765826423,,7.7410502433776855,-3.9370501041412354,-5.47005033493042
1770765826444,,10.537050247192383,-5.151000022888184,-5.110950469970703
1770765826445,3.941601267319807,,,
1770765826473,,,,-4.222949981689453
1770765826474,,10.885050773620605,-3.501000165939331,
1770765826485,,,,-0.22905001044273376
1770765826486,,7.284000396728516,1.3180500268936157,
1770765826504,6.225005870647803,9.62505054473877,-4.236000061035156,-3.3030002117156982
1770765826528,,,,-6.936000347137451
1770765826529,,15.100950241088867,-9.882000923156738,
1770765826552,,,,-9.994950294494629
1770765826553,,9.199050903320312,-4.6810503005981445,
1770765826585,,,,0.9889500737190247
1770765826586,4.182368764329009,3.3229501247406006,1.0740000009536743,
1770765826619,,7.128000259399414,-6.5560503005981445,-2.640000104904175
1770765826649,,,-6.712050437927246,-3.0900001525878906
1770765826650,1.8991617461750765,8.337000846862793,-5.3520002365112305,
1770765826686,,,,-1.6150500774383545
1770765826687,,6.610950469970703,-6.228000164031982,0.028050001710653305
1770765826707,4.207969624630911,5.718000411987305,-4.4320502281188965,-0.3540000021457672
1770765826749,,5.512050151824951,-6.693000316619873,-2.4940500259399414
1770765826767,,,-6.763950347900391,-3.6529502868652344
1770765826768,2.6428625795315823,2.674950122833252,,
1770765826804,,5.767950057983398,-6.562950134277344,-6.4830002784729
1770765826820,,,,-6.801000118255615
1770765826821,,4.5329999923706055,-7.099950313568115,
1770765826849,,,,-6.190950393676758
1770765826850,1.4761544122846602,4.687950134277344,-6.441000461578369,
1770765826895,,9.177000045776367,-5.740050315856934,-6.724950313568115
1770765826911,2.7939924164807697,5.638950347900391,-3.901050090789795,-7.07895040512085
1770765826960,,,-3.951000213623047,-5.7960004806518555
1770765826961,,5.988000392913818,,
1770765826969,,,-6.235050201416016,-4.563000202178955
1770765826970,5.211729890207889,7.33905029296875,,
1770765827019,,,,-6.2719502449035645
1770765827020,,14.826001167297363,-13.56195068359375,-4.60605001449585
1770765827031,,,,-4.2109503746032715
1770765827038,,,-3.421950101852417,
1770765827039,1.5023942753413604,6.283050060272217,,
1770765827082,,,,-2.419950008392334
1770765827083,,9.22800064086914,-6.714000225067139,-2.3740501403808594
1770765827091,,4.7220001220703125,-3.610950231552124,-2.0149500370025635
1770765827112,,,-3.2970001697540283,-2.3530499935150146
1770765827113,3.6426244656067035,6.793050289154053,,
1770765827138,,,-5.074050426483154,-4.831050395965576
1770765827139,,9.481950759887695,,
1770765827173,5.166671855472708,10.870050430297852,-7.16895055770874,-5.725950241088867
1770765827222,,,-3.6229500770568848,-6.2220001220703125
1770765827223,,5.9070000648498535,-4.4160003662109375,
1770765827239,3.3961531755659577,7.839000225067139,-2.8950002193450928,-7.873950481414795
1770765827294,,7.711950302124023,-4.348950386047363,-0.9640500545501709
1770765827295,4.0897959475925365,,,
1770765827354,,,,-3.8449501991271973
1770765827355,,,-4.42995023727417,-3.559950113296509
1770765827356,,9.004950523376465,-3.5779502391815186,
1770765827374,,,-3.421950101852417,-5.224050045013428
1770765827375,2.4515743335562274,9.376049995422363,,
1770765827409,,5.038050174713135,-5.697000503540039,-3.5910000801086426
1770765827420,,9.096000671386719,-5.424000263214111,-5.049000263214111
1770765827436,,,-4.044000148773193,-3.1930501461029053
1770765827437,2.6859098653830804,5.125950336456299,,
1770765827464,,7.078050136566162,-6.2470502853393555,-3.4900500774383545
1770765827494,,7.039050102233887,-7.914000511169434,-3.1500000953674316
1770765827496,3.1857935507649744,5.73900032043457,-8.256000518798828,-2.5759501457214355
1770765827517,,8.485950469970703,-7.440000534057617,-2.4060001373291016
1770765827559,,,,-2.809950113296509
1770765827560,,7.405950546264648,-5.7370500564575195,
1770765827561,2.0960795410220623,,,
1770765827577,,-1.6489500999450684,-4.192950248718262,-7.009950160980225
1770765827619,,,,-5.2759504318237305
1770765827620,,5.653050422668457,-4.078050136566162,-4.966950416564941
1770765827639,1.9224873009350334,5.767950057983398,-3.8770501613616943,-4.753950119018555
1770765827683,,,,-8.308050155639648
1770765827684,,7.62600040435791,-7.083000183105469,
1770765827699,,,-0.38805001974105835,-7.029000282287598
1770765827700,,11.599950790405273,,
1770765827701,6.6678174297233905,,,
1770765827739,,6.562950134277344,-1.4179500341415405,-8.58495044708252
1770765827760,,,,-7.651050567626953
1770765827761,2.5927743570502138,9.370950698852539,-4.9519500732421875,
1770765827795,,9.958050727844238,-2.890050172805786,-3.6820502281188965
1770765827820,,8.722949981689453,-5.850000381469727,-1.0980000495910645
1770765827821,4.277126804929255,,,
1770765827852,,6.592050075531006,-5.662950038909912,-3.892050266265869
1770765827897,,,-5.931000232696533,-2.5320000648498535
1770765827898,,7.846050262451172,,
1770765827903,3.5837410243932855,9.271050453186035,-7.768050193786621,-2.3430001735687256
1770765827960,,8.409000396728516,-7.70805025100708,-5.578050136566162
1770765827963,,5.260050296783447,-0.859950065612793,-5.176050186157227
1770765827964,3.7366271310620967,,,
1770765828013,,,,-10.504950523376465
1770765828014,,8.908950805664062,-5.8090500831604,
1770765828024,,,4.501950263977051,0.7110000252723694
1770765828025,12.690238168584175,2.9380500316619873,,
1770765828069,,,1.9120501279830933,-8.427000045776367
1770765828070,,8.634000778198242,,
1770765828084,,,-0.21105000376701355,-3.7849502563476562
1770765828085,5.819283085874489,6.288000106811523,,
1770765828127,,13.456050872802734,-2.9140501022338867,-4.671000003814697
1770765828165,,,,-5.580000400543213
1770765828166,,7.180950164794922,-0.5220000147819519,
1770765828167,3.9106915666750153,,,
1770765828223,,,-3.0889501571655273,-5.331000328063965
1770765828224,,7.5450005531311035,,
1770765828226,4.244575853848904,10.405950546264648,-5.931000232696533,-3.058950185775757
1770765828287,,,,-1.6920000314712524
1770765828288,,8.362950325012207,-2.3299500942230225,-2.2549500465393066
1770765828289,,7.942050457000732,,
1770765828290,3.7727266198833522,,,
1770765828345,,7.9710001945495605,-7.782000541687012,-6.210000514984131
1770765828347,,,,-2.3770501613616943
1770765828348,1.6290705389881512,4.462950229644775,-6.562950134277344,
1770765828367,,4.474950313568115,-1.1020500659942627,-1.231950044631958
1770765828399,,4.810050010681152,-0.8580000400543213,-5.194950103759766
1770765828428,,2.098050117492676,-4.938000202178955,-4.884000301361084
1770765828429,5.305974924890283,2.5480501651763916,-5.562000274658203,-4.6870503425598145
1770765828462,,4.434000015258789,-8.910000801086426,-5.281050205230713
1770765828495,0.6584264223663265,6.702000141143799,-8.986050605773926,-7.654050350189209
1770765828512,,7.399050235748291,-4.714950084686279,-4.383000373840332
1770765828550,,,,-4.6870503425598145
1770765828551,,6.51300048828125,-8.46405029296875,
1770765828552,5.1314219735212685,,,
1770765828575,,6.505050182342529,-7.7560505867004395,-4.354950428009033
1770765828612,,,-5.57895040512085,-6.016050338745117
1770765828613,,7.231050491333008,,
1770765828614,3.360410876583465,,,
1770765828638,,4.386000156402588,-5.557950496673584,-2.190000057220459
1770765828674,,,,-6.031050205230713
1770765828675,,6.663000106811523,-10.88700008392334,-8.518050193786621
1770765828694,,,,-8.454000473022461
1770765828695,6.1403479283069995,4.401000022888184,-4.648050308227539,
1770765828730,,8.905050277709961,-3.8239502906799316,-4.273050308227539
1770765828757,3.6333439263938914,12.075000762939453,-3.9460501670837402,-0.5070000290870667
1770765828786,,6.382950305938721,-2.694000244140625,-6.265050411224365
1770765828813,,,,-7.194000244140625
1770765828814,,4.068000316619873,-1.1400001049041748,-6.757950305938721
1770765828815,3.20177971106325,,,
1770765828846,,,,-6.270000457763672
1770765828847,,9.666000366210938,-4.377000331878662,
1770765828874,,11.007000923156738,-4.594950199127197,-7.723050594329834
1770765828875,6.442015018231267,12.877050399780273,,
1770765828893,,,,-6.736950397491455
1770765828894,,12.586950302124023,-4.605000019073486,
1770765828949,,,,-4.122000217437744
1770765828950,,11.296050071716309,-6.549000263214111,-3.4039502143859863
1770765828966,,,,-3.5400002002716064
1770765828967,4.615166804480496,8.622000694274902,-1.2480000257492065,
1770765829003,,12.007950782775879,-3.769050121307373,-3.664950132369995
1770765829017,3.051734374909999,8.480999946594238,-5.608050346374512,-3.1720502376556396
1770765829050,,,-6.508050441741943,-1.503000020980835
1770765829051,,7.020000457763672,,
1770765829059,,8.818050384521484,-6.805050373077393,-3.009000062942505
1770765829076,,,,-1.4140501022338867
1770765829077,6.6341524062546275,6.508050441741943,-10.219050407409668,
1770765829108,,5.335050106048584,-6.910050392150879,-2.578050136566162
1770765829137,,,,-1.807050108909607
1770765829138,2.404108754413089,2.7990000247955322,-2.7660000324249268,-4.855050086975098
1770765829170,,,,-4.896000385284424
1770765829171,,3.8430001735687256,-7.722000598907471,
1770765829219,,,,-2.998950242996216
1770765829221,,2.7199501991271973,-4.99500036239624,
1770765829222,,6.3070502281188965,,
1770765829223,20.40798994185358,,,
1770765829241,,,0.21195000410079956,-8.085000038146973
1770765829242,,5.2009501457214355,,
1770765829278,,,-2.0280001163482666,-15.045001029968262
1770765829279,6.878880186101957,-0.781950056552887,,
1770765829308,,4.663950443267822,-6.798000335693359,-0.33900001645088196
1770765829333,,7.264050483703613,-9.067950248718262,-0.9240000247955322
1770765829341,3.7530604271967736,9.646950721740723,-8.542950630187988,-4.4070000648498535
1770765829374,,6.733050346374512,-2.950050115585327,-7.872000217437744
1770765829391,,6.478950500488281,-4.711950302124023,-6.319950103759766
1770765829400,,9.570000648498535,-12.445950508117676,-2.329050064086914
1770765829401,7.741287009706486,,,
1770765829426,,,-8.50005054473877,1.1560500860214233
1770765829427,,6.814050197601318,,
1770765829442,,4.0320000648498535,-3.4459502696990967,-1.2370500564575195
1770765829482,,4.317000389099121,-7.710000514984131,-4.7659502029418945
1770765829483,4.48081951547632,2.932950258255005,,
1770765829510,,3.280050039291382,-3.8340001106262207,-3.4639501571655273
1770765829542,,,,-5.011050224304199
1770765829543,10.678758046378142,7.558950424194336,-4.795950412750244,-5.527950286865234
1770765829577,,11.71095085144043,-4.921050071716309,-6.556950092315674
1770765829603,,6.747000217437744,-0.10095000267028809,-4.8070502281188965
1770765829604,7.234084451002648,,,
1770765829627,,9.46500015258789,-3.264000177383423,-10.303950309753418
1770765829643,,,,-6.688950538635254
1770765829644,,9.438000679016113,-1.4160000085830688,
1770765829663,,9.379050254821777,-1.360050082206726,-3.1240501403808594
1770765829664,4.4938505328609155,,,
1770765829721,,,-5.0620503425598145,-5.299950122833252
1770765829722,,9.667950630187988,,
1770765829744,,,,-2.3170502185821533
1770765829745,,,-4.4730000495910645,-0.8779500126838684
1770765829746,4.094681728416905,6.022050380706787,,
1770765829776,,1.702950119972229,-5.457000255584717,3.4830002784729004
1770765829806,,6.490950107574463,-5.266050338745117,-3.375000238418579
1770765829807,3.8367077584362637,,,
1770765829834,,4.318950176239014,-4.150050163269043,-0.40605002641677856
1770765829849,,8.068950653076172,-6.2659502029418945,-0.30300000309944153
1770765829867,4.364561871435647,9.56100082397461,-10.294050216674805,-3.318000078201294
1770765829913,,,,-5.158950328826904
1770765829914,,4.600050449371338,-6.77400016784668,-4.720950126647949
1770765829928,,,,-3.1909501552581787
1770765829929,2.543502071960937,5.2699503898620605,-9.508050918579102,
1770765829982,,,,-3.415950059890747
1770765829983,,5.815950393676758,-6.814950466156006,
1770765829994,,9.164999961853027,-7.408050537109375,-6.475950241088867
1770765830007,,,,-7.234950542449951
1770765830008,4.744590891817006,10.633050918579102,-6.730950355529785,
1770765830029,,,,-6.421050071716309
1770765830030,,6.112950325012207,-2.9190001487731934,
1770765830048,,4.759950160980225,-2.9980502128601074,-3.283950090408325
1770765830069,3.293234600589743,3.778050184249878,-4.264950275421143,-5.302950382232666
1770765830103,,,,-4.587000370025635
1770765830104,,4.384050369262695,-6.048000335693359,
1770765830114,,7.9710001945495605,-7.543050289154053,-5.287950038909912
1770765830129,,,,-6.523950099945068
1770765830130,2.823324608036807,9.598950386047363,-5.938050270080566,
1770765830160,,6.904950141906738,-2.407050132751465,-6.403950214385986
1770765830182,,5.7109503746032715,-5.605950355529785,-6.9210004806518555
1770765830194,4.883767875285225,7.633050441741943,-10.092000007629395,-5.403000354766846
1770765830213,,,,-4.05495023727417
1770765830214,,6.814050197601318,-8.163000106811523,
1770765830229,,5.064000129699707,-3.309000253677368,-2.7120001316070557
1770765830249,,5.761050224304199,-3.1180500984191895,-1.0309500694274902
1770765830274,,5.338950157165527,-5.503050327301025,-0.7180500626564026
1770765830275,4.106250111479736,,,
1770765830316,,,,-0.42795002460479736
1770765830317,,,-7.365000247955322,-9.234000205993652
1770765830318,,6.931950092315674,,
1770765830319,,14.605051040649414,,
1770765830341,,,,-8.690999984741211
1770765830342,5.499611927559958,9.075000762939453,-1.7149500846862793,
1770765830389,,7.342950344085693,1.0420500040054321,-4.390050411224365
1770765830390,,6.922050476074219,,
1770765830393,,,-0.9559500217437744,-3.5380501747131348
1770765830394,4.129608585384509,5.2699503898620605,,
1770765830429,,,,-6.801000118255615
1770765830430,,6.714000225067139,-4.06095027923584,
1770765830433,,,-8.493000030517578,-7.8600006103515625
1770765830434,,11.872950553894043,,
1770765830453,,10.603950500488281,-4.07295036315918,-8.317049980163574
1770765830454,2.9799841090553096,,,
1770765830489,,7.65000057220459,-0.06495000422000885,-2.568000078201294
1770765830518,,,,-2.4220499992370605
1770765830519,,8.098050117492676,-5.2699503898620605,5.362950325012207
1770765830534,,,,-4.371000289916992
1770765830535,5.624637846414675,7.807950496673584,-7.909050464630127,
1770765830586,,,-6.582000255584717,-4.050000190734863
1770765830587,,6.6250505447387695,,
1770765830595,,5.088000297546387,-1.9300501346588135,-2.013000011444092
1770765830596,4.240632673241146,,,
1770765830630,,4.618950366973877,-3.5899500846862793,-4.005000114440918
1770765830652,,,,-0.9160500168800354
1770765830653,,6.196950435638428,-12.022050857543945,
1770765830656,4.52996808038712,7.62600040435791,-10.294050216674805,-5.049000263214111
1770765830711,,5.092950344085693,-3.9649500846862793,-1.4910000562667847
1770765830712,,5.988000392913818,,
1770765830726,1.359130662027615,8.176950454711914,-3.4050002098083496,-4.477050304412842
1770765830764,,8.433000564575195,-3.1870501041412354,-4.813950061798096
1770765830787,,,,-10.300050735473633
1770765830788,,4.2619500160217285,-6.574950218200684,
1770765830807,4.177655619217353,5.335050106048584,-4.653000354766846,-7.125000476837158
1770765830825,,9.337950706481934,-4.07295036315918,-5.374950408935547
1770765830858,,,,-4.9170002937316895
1770765830859,,9.943950653076172,-3.550950050354004,-6.189000129699707
1770765830860,1.2391495413110987,6.421950340270996,,
1770765830926,,,,-5.377050399780273
1770765830927,,,-7.027950286865234,-2.180999994277954
1770765830928,,6.261000156402588,,
1770765830930,4.06161066738048,,,
1770765830980,,5.620050430297852,-4.7220001220703125,-1.9320000410079956
1770765830981,1.9839906695784855,8.70300006866455,,
1770765831033,,7.645050525665283,-6.112950325012207,-2.740950107574463
1770765831039,,11.277000427246094,-5.083950042724609,-2.1880500316619873
1770765831068,3.602612919410984,9.32805061340332,-3.3379502296447754,-6.03795051574707
1770765831093,,,,-6.174000263214111
1770765831094,,4.276050090789795,0.17295001447200775,
1770765831123,,,-3.802950143814087,-6.943050384521484
1770765831124,,5.425950050354004,-4.686000347137451,
1770765831125,4.478899121241383,,,
1770765831153,,6.904950141906738,-2.464050054550171,-8.371950149536133
1770765831183,,,,-3.487950086593628
1770765831184,,9.550950050354004,-2.716050148010254,
1770765831185,4.096920270982475,,,
1770765831208,,8.995950698852539,-5.622000217437744,-3.8590502738952637
1770765831232,,8.089950561523438,-4.999950408935547,-2.808000087738037
1770765831243,,,-5.107950210571289,-2.001000165939331
1770765831244,4.70076025637503,7.069950103759766,,
1770765831314,,,,-1.4740500450134277
1770765831315,,6.382950305938721,-5.124000072479248,
1770765831325,2.711043825730325,9.084000587463379,-8.622000694274902,-3.495000123977661
1770765831377,,8.967000007629395,-9.276000022888184,-5.305050373077393
1770765831385,2.004178450689217,6.919950485229492,-6.87000036239624,-1.9720500707626343
1770765831423,,,,-1.5460500717163086
1770765831424,,4.216950416564941,-3.2950501441955566,
1770765831433,,4.978050231933594,-4.969050407409668,-3.44700026512146
1770765831446,6.473247936142523,13.719000816345215,-16.5,-5.077950477600098
1770765831479,,7.807950496673584,2.9820001125335693,-3.925950288772583
1770765831507,,,-0.7669500112533569,-8.551950454711914
1770765831508,7.055804564453143,5.5909504890441895,,
1770765831526,,3.4069502353668213,-7.317000389099121,-9.877950668334961
1770765831588,,,,-3.9280502796173096
1770765831589,,,-5.731950283050537,
1770765831590,,6.02400016784668,,
1770765831591,4.746617367592017,11.028000831604004,,
1770765831633,,6.661050319671631,-3.1369502544403076,-3.9210002422332764
1770765831649,,,-8.21505069732666,-3.4830002784729004
1770765831650,3.52738065478514,7.566000461578369,,
1770765831699,,,-8.455050468444824,-3.574050188064575
1770765831700,,7.579950332641602,-5.425950050354004,
1770765831709,1.261396337361762,5.983050346374512,-6.0960001945495605,-4.79295015335083
1770765831728,,5.353950023651123,-5.562000274658203,-4.860000133514404
1770765831755,,6.847950458526611,-9.280950546264648,-3.6289501190185547
1770765831770,,8.67495059967041,-6.78795051574707,0.7180500626564026
1770765831771,5.531958065941477,,,
1770765831800,,8.722949981689453,-3.979950189590454,-2.0899500846862793
1770765831810,,7.936950206756592,-1.240950107574463,-3.2989501953125
1770765831833,,6.070050239562988,-1.1160000562667847,-6.057000160217285
1770765831851,4.280680374899053,7.0819501876831055,-4.474950313568115,-10.600950241088867
1770765831911,,,,-9.960000038146973
1770765831912,,9.067049980163574,-5.212950229644775,
1770765831913,4.169457810462595,,,
1770765831930,,,,-5.506050109863281
1770765831931,,9.321000099182129,-4.9830002784729,
1770765831972,,,-3.3289501667022705,-4.9270501136779785
1770765831973,,6.7260003089904785,-6.333000183105469,
1770765831974,2.3118262469329958,,,
1770765831997,,,,-1.3380000591278076
1770765831998,,9.247050285339355,-6.343050479888916,
1770765832029,,,-5.098050117492676,-3.223950147628784
1770765832030,,6.811950206756592,,
1770765832034,2.9557501210997774,7.540050506591797,-6.951000213623047,-2.5420501232147217
1770765832064,,8.78700065612793,-6.355050086975098,-3.7219502925872803
1770765832084,,,,-0.8680500388145447
1770765832085,,4.06095027923584,-5.529000282287598,
1770765832120,,7.813050270080566,-6.046050071716309,-3.1909501552581787
1770765832121,0.9679460265761374,,,
1770765832138,,,,-3.6940500736236572
1770765832139,,6.043050289154053,-6.901050090789795,
1770765832183,1.4155839354093727,5.57895040512085,-3.9940502643585205,-3.117000102996826
1770765832200,,7.399050235748291,-4.468050003051758,-3.6220502853393555
1770765832236,,,,-4.723050117492676
1770765832237,,5.719950199127197,-1.321950078010559,
1770765832238,3.312565640932762,,,
1770765832268,,6.361950397491455,-5.470950126647949,-4.872000217437744
1770765832297,,8.494950294494629,-8.503050804138184,-8.551950454711914
1770765832298,3.5355951363440425,,,
1770765832334,,,-3.103950262069702,-8.26395034790039
1770765832335,,6.783000469207764,,
1770765832361,,,,-6.86400032043457
1770765832362,,6.76200008392334,-6.207000255584717,
1770765832376,4.334175370397167,6.276000499725342,-6.598950386047363,-3.5809502601623535
1770765832404,,,,-2.1880500316619873
1770765832405,,8.413949966430664,-8.080950736999512,
1770765832440,,5.437950134277344,-6.32895040512085,-5.035050392150879
1770765832441,4.063554832256587,,,
1770765832473,,4.438950061798096,-6.7950005531311035,-3.8209502696990967
1770765832499,,,,-1.9200000762939453
1770765832500,4.082206233166391,13.188000679016113,-18.360000610351562,-1.9579501152038574
1770765832529,,2.445000171661377,1.758000135421753,3.3040502071380615
1770765832560,,,,0.09795000404119492
1770765832561,,,2.7520501613616943,-3.3349502086639404
1770765832562,6.54189590084855,6.7420501708984375,,
1770765832579,,10.489950180053711,-6.903000354766846,-13.455000877380371
1770765832603,,4.765050411224365,-0.8530500531196594,-12.790050506591797
1770765832635,,,-0.8790000677108765,-7.680000305175781
1770765832636,,8.694000244140625,,
1770765832649,5.106111843523341,11.827950477600098,-4.284000396728516,-6.2989501953125
1770765832681,,12.415050506591797,-6.478950500488281,-6.663000106811523
1770765832698,,5.811000347137451,-2.493000030517578,-5.407950401306152
1770765832702,4.425186911908046,10.456050872802734,-7.353000164031982,-5.00100040435791
1770765832738,,5.2920002937316895,-3.8359501361846924,-2.0680501461029053
1770765832742,,6.658950328826904,-7.792050361633301,-1.6150500774383545
1770765832762,,,,-7.105950355529785
1770765832763,5.119309778777212,10.36500072479248,-6.736050128936768,
1770765832799,,1.4700000286102295,-6.693000316619873,6.787050247192383
1770765832804,,5.008950233459473,-5.067000389099121,-2.6860501766204834
1770765832823,1.8270097248672545,6.412050247192383,-7.396050453186035,-3.5689501762390137
1770765832855,,,,-4.366950035095215
1770765832856,,7.91295051574707,-6.148950099945068,
1770765832872,,6.996000289916992,-8.460000038146973,-5.347950458526611
1770765832905,,,-5.500050067901611,-3.009000062942505
1770765832906,,5.155050277709961,-0.7930500507354736,
1770765832907,6.198521825487503,,,
1770765832945,,6.402000427246094,-3.7159502506256104,-4.507950305938721
1770765832978,6.708365714743357,7.888950347900391,-5.164950370788574,-9.526050567626953
1770765833012,,8.284049987792969,-5.950050354003906,-5.322000026702881
1770765833028,,,,-5.295000076293945
1770765833029,3.7997829776830985,5.137950420379639,-2.5600500106811523,
1770765833077,,,-0.8700000643730164,-4.630050182342529
1770765833078,,3.6349501609802246,,
1770765833087,2.3744779314151025,13.333950996398926,-10.954050064086914,-5.52495002746582
1770765833127,,,,-1.4599500894546509
1770765833128,,5.536050319671631,-4.546950340270996,-3.3919501304626465
1770765833167,,,,-2.808000087738037
1770765833168,,3.9409501552581787,-6.345000267028809,-6.450000286102295
1770765833169,4.5504432126999275,,,
1770765833209,,6.952950477600098,-8.092950820922852,-3.3010501861572266
1770765833228,,,,-2.442000150680542
1770765833229,2.758857680286035,7.188000202178955,-2.545950174331665,
1770765833274,,,-3.5779502391815186,-1.7760001420974731
1770765833275,,8.47800064086914,,
1770765833288,2.5121510846995605,5.026050090789795,-2.2390501499176025,-4.9360504150390625
1770765833341,,11.095050811767578,-10.84695053100586,-7.528950214385986
1770765833348,,,,-6.612000465393066
1770765833349,5.239269553079809,5.611950397491455,2.6419501304626465,
1770765833404,,9.927000045776367,-1.9900500774383545,-7.189050197601318
1770765833405,,13.414950370788574,,
1770765833430,,,,-7.1770501136779785
1770765833431,2.1372607448592027,9.879000663757324,-5.731950283050537,
1770765833460,,3.8550002574920654,-5.473950386047363,3.438000202178955
1770765833477,,7.402950286865234,-3.9180002212524414,-2.218950033187866
1770765833494,4.818332457109651,6.649050235748291,-5.272950172424316,-1.467000126838684
1770765833527,,8.65095043182373,-4.0489501953125,-2.479950189590454
1770765833543,,4.954050064086914,-6.381000518798828,-3.5329501628875732
1770765833552,4.3261350608619855,8.42805004119873,-7.092000484466553,-2.817000150680542
1770765833611,,,,-5.911050319671631
1770765833612,,,-10.53795051574707,-5.692950248718262
1770765833613,,11.176950454711914,,
1770765833615,4.1628730034023445,,,1.672950029373169
1770765833640,,,,-2.152050018310547
1770765833641,,5.485050201416016,-4.255050182342529,
1770765833678,,6.793050289154053,-6.609000205993652,-6.169050216674805
1770765833679,,7.324050426483154,,
1770765833694,,,,-4.73805046081543
1770765833695,,7.51800012588501,-4.264950275421143,
1770765833696,2.207919915806336,,,
1770765833734,,,-3.9130501747131348,-5.868000507354736
1770765833735,,4.777050018310547,,
1770765833754,5.087790343601467,6.517050266265869,-9.142050743103027,-6.945000171661377
1770765833790,,,,-8.113950729370117
1770765833791,,8.169000625610352,-7.509000301361084,
1770765833813,,8.224950790405273,-4.762950420379639,-3.574050188064575
1770765833815,2.427958765807841,6.763950347900391,-4.815000057220459,-2.668950080871582
1770765833845,,,-6.586950302124023,-2.2069501876831055
1770765833846,,8.338950157165527,,
1770765833878,,7.42995023727417,-6.439050197601318,-4.885950088500977
1770765833879,5.017366956496949,,,
1770765833898,,6.148950099945068,-6.570000171661377,-4.390050411224365
1770765833947,,5.979000091552734,-4.297950267791748,-4.198950290679932
1770765833957,4.489060987398588,11.97195053100586,-7.5859503746032715,-5.299950122833252
1770765834009,,,-4.7989501953125,-7.1010003089904785
1770765834010,,9.508050918579102,,
1770765834018,2.817665273698154,4.935000419616699,-6.12000036239624,-6.004050254821777
1770765834045,,5.253000259399414,-5.233950138092041,-6.319950103759766
1770765834065,,,-3.262050151824951,-2.9040000438690186
1770765834066,,6.264000415802002,,
1770765834079,2.0980718616509804,7.91295051574707,-3.4080002307891846,-2.556000232696533
1770765834120,,10.813050270080566,-6.87000036239624,-4.7470502853393555
1770765834140,,7.4320502281188965,-3.0990002155303955,-3.847050189971924
1770765834141,2.6527543347062377,,,
1770765834176,,,,-3.0349502563476562
1770765834177,,10.07295036315918,-3.172950267791748,
1770765834218,,,,-5.5849504470825195
1770765834219,,13.324050903320312,-8.980950355529785,-7.801950454711914
1770765834220,,8.742000579833984,,
1770765834221,,,,-3.873000144958496
1770765834222,3.263282629391317,,-1.2019500732421875,
1770765834252,,8.20305061340332,-5.176950454711914,-3.2890501022338867
1770765834288,,,-4.950000286102295,-3.0040502548217773
1770765834289,0.7484919167886757,9.931950569152832,,
1770765834341,,,-7.570950508117676,-1.7569501399993896
1770765834342,,,-7.078050136566162,
1770765834343,,,-6.7260003089904785,
1770765834344,,6.6469502449035645,,
1770765834347,5.0156084577341105,,,-0.6550500392913818
1770765834395,,,-6.693000316619873,-3.6100502014160156
1770765834396,,7.557000160217285,-1.4629501104354858,
1770765834403,4.759967585220882,3.7159502506256104,-2.716050148010254,-3.258000135421753
1770765834442,,5.410950183868408,-4.915950298309326,-1.3090500831604004
1770765834484,,,,-6.004050254821777
1770765834485,,,-2.5669500827789307,-9.655050277709961
1770765834486,,5.184000015258789,,
1770765834487,3.6669341914521616,,,
1770765834518,,6.867000102996826,-7.303050518035889,-8.230950355529785
1770765834551,3.041326233786001,4.947000026702881,-6.568050384521484,-4.495950222015381
1770765834605,,,,-2.9950501918792725
1770765834606,,7.348050117492676,-4.056000232696533,
1770765834607,,6.9120001792907715,,
1770765834608,4.4109515274695035,,,
1770765834642,,,,-4.62000036239624
1770765834643,,4.573050022125244,-6.7069501876831055,
1770765834666,2.0320977422680384,8.950050354003906,-11.802000999450684,-4.696950435638428
1770765834686,,,-1.9330500364303589,-1.194000005722046
1770765834687,,3.361950159072876,,
1770765834724,,,-5.838000297546387,-3.186000108718872
1770765834725,,5.8090500831604,,
1770765834749,,,,-0.21000000834465027
1770765834750,4.900584843824606,5.137950420379639,-3.7069501876831055,
1770765834782,,9.619950294494629,-6.207000255584717,-4.074000358581543
1770765834808,,,,-5.764950275421143
1770765834809,2.9352063903506136,6.241950511932373,-0.43605002760887146,
1770765834834,,8.521050453186035,-5.332950115203857,-8.892000198364258
1770765834868,2.783881410632568,7.948950290679932,-4.693050384521484,-8.302950859069824
1770765834892,,7.908000469207764,-3.633000135421753,-3.9019501209259033
1770765834933,,6.8359503746032715,-1.954050064086914,-3.3540000915527344
1770765834934,2.651367097577116,7.444050312042236,,
1770765834955,,,,-8.098950386047363
1770765834956,,9.987000465393066,-3.7360501289367676,
1770765835000,,,,0.2650500237941742
1770765835001,,6.586950302124023,-8.329950332641602,
1770765835021,,,-3.3960001468658447,-2.568000078201294
1770765835023,3.544649879802763,5.698950290679932,,
1770765835057,,8.136000633239746,-6.585000514984131,-2.7580502033233643
1770765835074,1.175182811232484,7.683000564575195,-5.953050136566162,-3.9760501384735107
1770765835091,,7.65000057220459,-6.931950092315674,-2.67900013923645
1770765835133,,,,-3.80400013923645
1770765835134,,5.3269500732421875,-4.309950351715088,-6.4519500732421875
1770765835135,3.1142772579453277,,,
1770765835159,,,,-6.676950454711914
1770765835160,,4.023000240325928,-4.759950160980225,
1770765835193,1.7487424010192814,5.500050067901611,-5.93595027923584,-4.824000358581543
1770765835221,,,,-6.148050308227539
1770765835222,,8.45895004272461,-4.780050277709961,
1770765835243,,,,-7.9170002937316895
1770765835244,,10.168950080871582,-3.553950071334839,
1770765835273,,,,-9.129000663757324
1770765835274,,,,-5.44605016708374
1770765835275,3.195678540741292,9.04800033569336,-4.758000373840332,
1770765835329,,,,-3.6289501190185547
1770765835330,,4.666950225830078,-1.5589500665664673,-1.6390501260757446
1770765835335,,6.526950359344482,-5.400000095367432,-4.501049995422363
1770765835338,1.2610784742545365,,,
1770765835372,,7.474950313568115,-8.170050621032715,-5.403000354766846
1770765835390,,6.733050346374512,-5.167050361633301,-2.299950122833252
1770765835394,,6.313950061798096,-7.573950290679932,-0.5760000348091125
1770765835395,3.402852735320947,,,
1770765835428,,5.0590500831604,-6.223050117492676,-1.062000036239624
1770765835438,,,,-6.078000068664551
1770765835439,,5.473950386047363,-8.140950202941895,
1770765835456,3.0220814899638992,5.8660502433776855,-6.055950164794922,-2.1040501594543457
1770765835493,,,,-3.9880502223968506
1770765835494,,8.308050155639648,-5.565000057220459,
1770765835540,,,-5.361000061035156,-3.736950159072876
1770765835541,,,-2.950050115585327,
1770765835542,,7.867950439453125,-3.6730501651763916,
1770765835543,1.8218609032322743,,,
1770765835560,,,,-5.329050064086914
1770765835561,,9.295050621032715,-6.2659502029418945,
1770765835598,2.439847158429015,6.558000087738037,-2.4310500621795654,-6.172050476074219
1770765835628,,,,-6.732000350952148
1770765835629,,7.956000328063965,-5.380050182342529,
1770765835645,,7.44195032119751,-3.015000104904175,-6.9810004234313965
1770765835658,4.509738556923964,11.19795036315918,-5.143050193786621,-3.385050058364868
1770765835696,,11.641050338745117,-5.220000267028809,-7.05495023727417
1770765835713,,,,9.280050277709961
1770765835714,,-4.480950355529785,4.492950439453125,
1770765835726,1.5129759142232415,4.615950107574463,0.5779500007629395,-1.125
1770765835763,,,,-6.897000312805176
1770765835764,,10.257000923156738,-6.505950450897217,
1770765835801,,,,35.77995300292969
1770765835802,,,3.652050256729126,-4.44795036315918
1770765835803,,-7.4350504875183105,-3.2160000801086426,
1770765835809,8.196109816583004,,,
1770765835830,,14.431050300598145,-9.678000450134277,-7.888950347900391
1770765835848,,,-3.4200000762939453,2.8939502239227295
1770765835849,,-1.9410001039505005,,
1770765835868,,,-3.5850002765655518,-3.9930002689361572
1770765835869,1.7760216794795736,8.47800064086914,,
1770765835904,,,,-3.315000057220459
1770765835905,,9.019050598144531,-3.867000102996826,
1770765835922,,,,-3.6889500617980957
1770765835923,2.1177097253627553,7.9800004959106445,-5.230050086975098,
1770765835965,,2.8369500637054443,-2.9380500316619873,-3.699000120162964
1770765835983,4.534662895080679,8.074049949645996,-7.252950191497803,-5.506050109863281
1770765836032,,6.010050296783447,-7.099950313568115,-5.5489501953125
1770765836049,,4.255050182342529,-2.485950231552124,-3.6150002479553223
1770765836063,,,-6.027000427246094,-5.121000289916992
1770765836064,1.6378240017267802,7.020000457763672,,
1770765836098,,10.087050437927246,-7.830000400543213,-5.614050388336182
1770765836126,,4.579950332641602,-5.127000331878662,-6.9310503005981445
1770765836127,4.506670987467603,,,
1770765836153,,4.213950157165527,-6.217950344085693,-1.3210500478744507
1770765836166,,5.1220502853393555,-8.467050552368164,-0.7990500330924988
1770765836185,,6.40500020980835,-7.930050373077393,-0.23205001652240753
1770765836186,5.214547481050384,,,
1770765836217,,5.943000316619873,-6.343050479888916,-4.07895040512085
1770765836234,,4.675950050354004,-5.170050144195557,-4.897950172424316
1770765836250,1.5209087022195187,5.035050392150879,-6.465000152587891,-4.474050045013428
1770765836301,,,,-3.4900500774383545
1770765836302,,,-6.7669501304626465,-3.2320501804351807
1770765836303,,6.7860002517700195,,
1770765836319,,,,-1.659000039100647
1770765836320,,8.480999946594238,-5.593950271606445,
1770765836335,1.9516557584154228,8.577000617980957,-5.5600504875183105,-3.985950231552124
1770765836383,,5.995050430297852,-4.293000221252441,-5.142000198364258
1770765836388,5.54617795191135,7.573050498962402,-5.529000282287598,-9.957000732421875
1770765836429,,9.562950134277344,-4.686000347137451,-7.266000270843506
1770765836448,,7.53000020980835,-1.2360000610351562,-2.8440001010894775
1770765836449,4.812101669670753,,,
1770765836490,,10.221000671386719,-5.407050132751465,-4.912050247192383
1770765836507,,9.58905029296875,-4.963950157165527,-6.9310503005981445
1770765836509,,5.75100040435791,-3.5250000953674316,-4.929000377655029
1770765836510,2.3422914162576602,,,
1770765836538,,,,-0.6670500040054321
1770765836539,,7.108950138092041,-4.078050136566162,
1770765836571,,8.080950736999512,-5.698950290679932,-1.2079501152038574
1770765836572,,7.063050270080566,,
1770765836600,2.9914495688664533,8.014050483703613,-2.950050115585327,-0.8659500479698181
1770765836638,,,-8.66295051574707,-3.876000165939331
1770765836639,,10.894050598144531,-6.130050182342529,
1770765836650,,,-3.9460501670837402,-3.8400001525878906
1770765836651,2.28906604128619,5.85705041885376,,
1770765836706,,,-4.762950420379639,-1.5079500675201416
1770765836707,,5.365950107574463,-4.88700008392334,
1770765836712,,5.482950210571289,-7.162050247192383,-5.383950233459473
1770765836713,4.56165650814116,,,
1770765836760,,,,-6.960000514984131
1770765836761,,8.260050773620605,-7.672050476074219,-5.077950477600098
1770765836762,,9.922050476074219,,
1770765836772,,4.624050140380859,-0.7639500498771667,-5.904000282287598
1770765836773,4.783265929240094,,,
1770765836814,,,,-5.619000434875488
1770765836815,,2.164950132369995,-3.3289501667022705,
1770765836816,,5.260050296783447,,
1770765836845,,,,-5.650050163269043
1770765836846,,10.851000785827637,-8.302050590515137,
1770765836864,,,,-3.5329501628875732
1770765836865,2.5881204754942546,8.962050437927246,-3.7740001678466797,
1770765836916,,,-0.4720500111579895,-2.997000217437744
1770765836917,3.914307120287522,3.807000160217285,,
1770765836972,,,,-3.1309502124786377
1770765836973,,9.54900074005127,-8.031000137329102,
1770765836974,,7.26900053024292,,
1770765836975,1.0361643938290503,,-6.139050483703613,-4.065000057220459
1770765837035,,4.465950012207031,,
1770765837036,3.0006558972837603,8.089950561523438,,
1770765837088,,8.907000541687012,-5.449950218200684,1.3189500570297241
1770765837089,,7.438950538635254,,
1770765837108,,4.711950302124023,-4.083000183105469,-3.487950086593628
1770765837117,,,-4.15500020980835,-6.853950500488281
1770765837118,4.2070419042199125,4.068000316619873,,
1770765837157,,7.8319501876831055,-6.178050518035889,-6.51900053024292
1770765837173,,7.746000289916992,-4.7719502449035645,-6.454050540924072
1770765837176,,,,-3.865950107574463
1770765837177,1.9009545989978751,8.767950057983398,-6.240000247955322,
1770765837198,,5.538000106811523,-3.3190500736236572,-3.2029502391815186
1770765837239,,,-2.4760501384735107,-4.455000400543213
1770765837240,,5.377950191497803,-6.88200044631958,
1770765837241,4.255985757072537,,,
1770765837303,,,-4.228950023651123,-6.210000514984131
1770765837304,,9.276000022888184,-6.736050128936768,
1770765837305,3.6527726028721603,,,
1770765837366,,,,-3.28695011138916
1770765837367,,,-4.642950057983398,-1.264050006866455
1770765837368,,2.9830501079559326,-10.939950942993164,
1770765837385,4.354280728879749,9.544050216674805,-5.850000381469727,-3.8490002155303955
1770765837421,,9.211050033569336,-6.241950511932373,-3.4729502201080322
1770765837441,1.635239399173296,5.82105016708374,-4.023000240325928,-5.889000415802002
1770765837473,,7.723950386047363,-3.538950204849243,-4.453050136566162
1770765837503,4.1841111775902355,8.657999992370605,-3.871950149536133,-4.455000400543213
1770765837537,,7.020000457763672,-1.8510000705718994,-7.563000202178955
1770765837562,,,-2.3800501823425293,-5.65500020980835
1770765837563,4.112438611902909,7.159050464630127,,
1770765837583,,8.0110502243042,-1.2649500370025635,-3.957000255584717
1770765837639,,,,-5.623950481414795
1770765837640,,,-3.229950189590454,-7.8070502281188965
1770765837641,,8.920950889587402,,
1770765837645,,,,-4.198950290679932
1770765837646,2.98277663323733,4.540050029754639,-4.207050323486328,
1770765837696,,,-7.566000461578369,-2.8219501972198486
1770765837697,,7.932000160217285,,
1770765837705,2.223576413906535,6.69195032119751,-3.7549502849578857,-3.4140002727508545
1770765837750,,6.139050483703613,-8.493000030517578,-3.2989501953125
1770765837766,,,,-3.9790501594543457
1770765837767,4.759384722333409,4.333950042724609,-9.331050872802734,
1770765837804,,,,-2.884050130844116
1770765837805,,5.008950233459473,-7.813050270080566,-1.6009501218795776
1770765837825,,,,-3.4590001106262207
1770765837826,5.2189111741812715,6.300000190734863,-8.335050582885742,
1770765837844,,,,-3.2029502391815186
1770765837845,,8.19105052947998,-8.41200065612793,
1770765837908,,,-6.634950160980225,-4.41195011138916
1770765837909,,8.383049964904785,-5.878050327301025,
1770765837910,2.8815399090268476,,,
1770765837971,,,-3.489000082015991,-4.4670000076293945
1770765837972,7.735934876634326,5.9569501876831055,-4.726950168609619,
1770765838024,,,,-10.303950309753418
1770765838025,,,-1.9950001239776611,-3.2290501594543457
1770765838026,,7.461000442504883,,
1770765838028,,7.0489501953125,0.33105000853538513,-1.7500500679016113
1770765838029,3.9182081368090866,,,
1770765838047,,10.008000373840332,-5.074050426483154,-1.1130000352859497
1770765838078,,16.72395133972168,-12.073050498962402,-9.96405029296875
1770765838087,,,,-5.511000156402588
1770765838088,4.19284263379949,8.158050537109375,0.21405000984668732,
1770765838114,,,,4.921950340270996
1770765838115,,6.301950454711914,-1.321950078010559,
1770765838134,,12.450000762939453,-6.2659502029418945,-1.3309500217437744
1770765838172,,,,-5.880000114440918
1770765838173,,7.758000373840332,-4.135050296783447,
1770765838174,6.173528444957014,,,
1770765838189,,,,-4.960050106048584
1770765838190,,8.593050003051758,-4.0759501457214355,
1770765838231,1.1953348394562793,3.259050130844116,-4.759950160980225,1.6090500354766846
1770765838257,,9.084000587463379,-7.413000583648682,-4.651050090789795
1770765838292,,,,-1.4790000915527344
1770765838293,,,-2.7900002002716064,-3.3390002250671387
1770765838294,,0.06705000251531601,,
1770765838295,2.546765752216206,,,
1770765838320,,4.62600040435791,-5.28000020980835,-2.5470001697540283
1770765838354,1.6395367600815456,7.44195032119751,-7.027950286865234,-2.949000120162964
1770765838383,,,,-4.249050140380859
1770765838384,,5.506950378417969,-3.991950273513794,
1770765838408,,,,-6.250950336456299
1770765838409,,6.109950065612793,-3.2089500427246094,
1770765838434,,,,-8.146950721740723
1770765838435,6.24623788138896,6.32295036315918,-6.451050281524658,-11.071050643920898
1770765838453,,4.498950004577637,-2.395050048828125,-6.205050468444824
1770765838493,,,,-7.70205020904541
1770765838494,1.1511135970665278,7.000950336456299,-5.2099504470825195,-5.365050315856934
1770765838517,,7.648050308227539,-7.011000156402588,-3.579000234603882
1770765838554,,9.082050323486328,-8.62695026397705,-2.5879502296447754
1770765838555,2.4701534096957705,,,
1770765838577,,6.57705020904541,-5.00700044631958,-3.696000099182129
1770765838616,,,,-5.764950275421143
1770765838617,,9.646950721740723,-7.855950355529785,-2.8320000171661377
1770765838618,,8.689050674438477,,
1770765838619,1.4657148288942508,,,
1770765838652,,5.962050437927246,-2.814000129699707,-2.725950241088867
1770765838655,,4.528050422668457,-2.902050256729126,-4.249050140380859
1770765838683,,,,-5.224050045013428
1770765838684,,5.859000205993652,-4.4160003662109375,
1770765838697,,,,-5.488950252532959
1770765838698,,8.814000129699707,-5.236950397491455,
1770765838699,2.2350293248448128,,,
1770765838732,,,,-6.523950099945068
1770765838733,,6.940950393676758,-2.1750001907348633,
1770765838750,,,,-6.0859503746032715
1770765838751,,7.99500036239624,-4.41795015335083,
1770765838757,,8.47605037689209,-5.175000190734863,-7.077000141143799
1770765838758,3.165479554641295,,,
1770765838787,,7.91295051574707,-2.407050132751465,-5.338950157165527
1770765838795,,,,-4.471950054168701
1770765838796,,9.462000846862793,-4.950000286102295,
1770765838818,1.8302836918464744,7.420050144195557,-2.2510499954223633,-3.5020501613616943
1770765838849,,,,-8.169000625610352
1770765838850,,9.814050674438477,-3.961050271987915,
1770765838880,0.8333162226509745,9.55305004119873,-7.071000099182129,-3.967050075531006
1770765838903,,,-4.164000034332275,-3.4020001888275146
1770765838904,,7.288050174713135,,
1770765838921,,,,-1.0360500812530518
1770765838922,,5.305950164794922,-3.7330501079559326,
1770765838959,,,,-2.977950096130371
1770765838960,,,-4.537950038909912,
1770765838961,,6.988950252532959,,
1770765838962,2.8286725773416563,,,
1770765838988,,,,-2.5540502071380615
1770765838989,,8.526000022888184,-5.722950458526611,
1770765839019,,9.34695053100586,-6.714000225067139,-2.0440499782562256
1770765839020,2.8397033740666555,,,
1770765839054,,,,-3.2560501098632812
1770765839055,,6.675000190734863,-5.36400032043457,
1770765839068,,,,-5.341050148010254
1770765839069,,6.208950519561768,-6.520050525665283,
1770765839081,,,,-8.218950271606445
1770765839082,3.8422171164569967,5.755950450897217,-6.481950283050537,
1770765839122,,5.854050159454346,-3.882000207901001,-5.659050464630127
1770765839142,,8.529000282287598,-5.164950370788574,-4.3279500007629395
1770765839143,3.5005235280451905,,,
1770765839180,,9.175050735473633,-5.548050403594971,-6.23205041885376
1770765839193,,,,-7.474050521850586
1770765839194,,7.317000389099121,-4.8919501304626465,
1770765839223,4.70112156573621,5.533050060272217,-4.0759501457214355,-4.840950012207031
1770765839261,,5.7300004959106445,-6.97005033493042,-2.8750500679016113
1770765839286,,5.217000484466553,-3.979950189590454,-3.037950038909912
1770765839287,4.146884778492027,,,
1770765839326,,12.486001014709473,-10.564050674438477,-8.293050765991211
1770765839344,4.614208932446127,4.746000289916992,-4.495050430297852,-2.959050178527832
1770765839393,,,-3.3859500885009766,-0.697950005531311
1770765839394,,4.111050128936768,,
1770765839413,1.2074142885293753,7.867950439453125,-7.225950241088867,-4.267950057983398
1770765839453,,,,-5.3359503746032715
1770765839454,,8.988000869750977,-7.171050548553467,
1770765839486,,,,-5.64300012588501
1770765839487,0.32631196080404207,9.385950088500977,-8.079000473022461,
1770765839509,,,,-3.438000202178955
1770765839510,,6.7420501708984375,-6.252000331878662,
1770765839548,,8.212950706481934,-8.2339506149292,-3.438000202178955
1770765839549,5.825904730088904,,,
1770765839591,,,,-3.8520002365112305
1770765839592,,2.9950501918792725,-0.7450500130653381,
1770765839608,2.87221226086868,8.2339506149292,-4.012950420379639,-6.141000270843506
1770765839656,,,,-7.857000350952148
1770765839657,,11.143050193786621,-6.469950199127197,-5.700000286102295
1770765839658,,10.324050903320312,,
1770765839670,4.311522442136068,12.60105037689209,-5.685000419616699,-1.5799500942230225
1770765839726,,,,-4.146000385284424
1770765839727,,7.666950225830078,-3.919950246810913,
1770765839729,,4.578000068664551,-2.493000030517578,-5.121000289916992
1770765839750,,6.790050506591797,-6.448050498962402,-3.028050184249878
1770765839751,2.05504915368912,,,
1770765839784,,,,-5.491950035095215
1770765839785,,10.630950927734375,-9.559050559997559,
1770765839794,,3.343050241470337,-2.095950126647949,1.0750499963760376
1770765839810,2.687720888508315,9.019050598144531,-4.933050155639648,-2.5540502071380615
1770765839839,,7.65000057220459,-4.011000156402588,-3.6700501441955566
1770765839858,,8.131050109863281,-7.486950397491455,-3.6100502014160156
1770765839876,,,,-2.740950107574463
1770765839877,2.6845999751112246,4.309950351715088,-5.248950481414795,
1770765839893,,,,-4.759050369262695
1770765839894,,6.832950115203857,-7.2960004806518555,
1770765839928,,5.332050323486328,-3.199050188064575,-4.4070000648498535
1770765839932,1.676947981148754,5.938050270080566,-2.7970502376556396,-4.419000148773193
1770765839995,,,,-4.711050033569336
1770765839996,,6.798000335693359,-6.004950523376465,
1770765840012,,,,-4.085999965667725
1770765840013,4.020664244474646,8.407050132751465,-6.106050491333008,
1770765840057,,,,-7.225050449371338
1770765840058,,7.012950420379639,-4.78695011138916,-7.1509504318237305
1770765840086,1.519131723163524,6.051000118255615,-4.854000091552734,-6.442050457000732
1770765840117,,7.204950332641602,-5.433000087738037,-6.775050163269043
1770765840135,1.7739271924669242,6.01200008392334,-5.3710503578186035,-4.474050045013428
1770765840169,,5.842050075531006,-5.404050350189209,-3.8110501766204834
1770765840198,,,-3.5659501552581787,-1.7640000581741333
1770765840199,2.898840534331174,4.554000377655029,,
1770765840224,,,,-5.227950096130371
1770765840225,,8.590950012207031,-10.629000663757324,
1770765840259,,10.044000625610352,-9.831000328063965,-5.413050174713135
1770765840276,,,-2.6200501918792725,-2.5440001487731934
1770765840277,,6.862050533294678,,
1770765840278,2.296058042390719,,,
1770765840331,,6.379050254821777,-4.569000244140625,-1.9789501428604126
1770765840332,,5.943000316619873,,
1770765840341,1.0425377001452083,6.826050281524658,-4.273950099945068,-4.387950420379639
1770765840389,,,,-5.254950046539307
1770765840390,,9.148950576782227,-3.8389501571655273,-7.252050399780273
1770765840398,2.531125854461901,7.818000316619873,-4.498950004577637,-7.480950355529785
1770765840443,,,,-6.078000068664551
1770765840444,,8.608050346374512,-5.788050174713135,
1770765840459,,,-2.373000144958496,0.04500000178813934
1770765840460,2.449567024742049,5.839950084686279,,
1770765840499,,,,-3.639000177383423
1770765840500,,9.034049987792969,-2.464050054550171,-8.559000015258789
1770765840533,,,,-6.825000286102295
1770765840534,,7.387050151824951,-2.713050127029419,
1770765840540,,,,-0.13095000386238098
1770765840541,4.047699008547195,5.068950176239014,-2.2770001888275146,
1770765840602,,10.293000221252441,-8.527050018310547,-4.711050033569336
1770765840603,7.4500598162611515,10.62405014038086,,
1770765840661,,,,-1.4479501247406006
1770765840662,,7.377000331878662,-6.508050441741943,
1770765840664,2.8807031207624822,,,
1770765840719,,,-4.219050407409668,-3.088050127029419
1770765840720,,4.341000080108643,-7.381950378417969,
1770765840722,,6.127050399780273,-6.064950466156006,-5.616000175476074
1770765840723,2.302301756104023,,,
1770765840779,,,,-5.020050048828125
1770765840780,,5.512050151824951,-6.709050178527832,-4.363950252532959
1770765840804,,,-3.472050189971924,-5.212050437927246
1770765840805,,4.281000137329102,-4.744050025939941,
1770765840806,1.9333139544644837,,,
1770765840829,,,,-4.174950122833252
1770765840830,,6.618000507354736,-5.725050449371338,
1770765840862,,6.204000473022461,-5.680050373077393,-5.152050018310547
1770765840863,,,,-4.963050365447998
1770765840864,2.363569257857326,4.486950397491455,-4.273950099945068,
1770765840887,,6.97005033493042,-6.300000190734863,-3.3510000705718994
1770765840924,,,,-2.949000120162964
1770765840925,1.3493319942658708,5.634000301361084,-5.7709503173828125,
1770765840985,,,-6.568050384521484,-6.39900016784668
1770765840986,,7.99500036239624,-5.308950424194336,
1770765840987,2.4849350975664195,,,
1770765841006,,7.348050117492676,-5.586000442504883,-4.216050148010254
1770765841051,,6.144000053405762,-4.260000228881836,-4.8480000495910645
1770765841052,,9.094050407409668,,
1770765841066,,,,-5.00100040435791
1770765841067,,,-4.11899995803833,
1770765841068,1.7816745185262712,7.588050365447998,,
1770765841108,,,,-6.150000095367432
1770765841109,,9.300000190734863,-7.827000141143799,
1770765841127,3.4061191078725006,5.574000358581543,-4.042050361633301,-2.491950035095215
1770765841159,,3.687000274658203,-2.3400001525878906,-1.4119501113891602
1770765841189,,,-5.244000434875488,-2.290950059890747
1770765841190,1.4880958902266754,6.289950370788574,-4.7029500007629395,
1770765841222,,5.5600504875183105,-5.898000240325928,-5.82705020904541
1770765841249,4.027668152702133,11.931000709533691,-13.0489501953125,-7.801950454711914
1770765841268,,,,-0.4759500324726105
1770765841269,,7.687950134277344,-1.3819500207901,
1770765841324,,,,-2.7580502033233643
1770765841325,,,,-2.2480502128601074
1770765841326,,5.572050094604492,-1.5109500885009766,
1770765841329,,,-8.122050285339355,-6.013950347900391
1770765841330,3.4317320549324046,8.682000160217285,,
1770765841384,,,,-7.204050540924072
1770765841385,,6.204000473022461,-6.228000164031982,-3.8370001316070557
1770765841390,,,-6.361950397491455,-2.760000228881836
1770765841391,3.2432359585809087,10.104000091552734,,
1770765841416,,7.462950229644775,-3.453000068664551,-2.0940001010894775
1770765841436,,,,-4.1610002517700195
1770765841437,,6.02400016784668,-2.6920502185821533,
1770765841451,3.797430806235897,7.336050510406494,-7.617000579833984,-2.8750500679016113
1770765841476,,8.268000602722168,-7.624050140380859,-3.318000078201294
1770765841514,,4.923000335693359,-5.038050174713135,-3.7890002727508545
1770765841515,2.4164671541488163,,,
1770765841542,,,-3.2689502239227295,-3.409050226211548
1770765841543,,6.189000129699707,,
1770765841593,,,,-4.560000419616699
1770765841594,,,-4.545000076293945,-5.556000232696533
1770765841595,,7.32705020904541,,
1770765841596,2.8373347431743436,,,
1770765841655,,,,-3.5209500789642334
1770765841656,,7.399050235748291,-6.4270501136779785,-4.531949996948242
1770765841657,1.7004254846485227,5.392050266265869,,
1770765841685,,5.014050006866455,-4.107000350952148,-2.8369500637054443
1770765841709,,6.919950485229492,-4.677000045776367,-2.371950149536133
1770765841714,,,,-2.884050130844116
1770765841715,3.044779521558154,9.462000846862793,-6.7669501304626465,
1770765841745,,8.45205020904541,-7.507050514221191,-6.676950454711914
1770765841763,,,,-4.027050018310547
1770765841764,,7.068000316619873,-5.818950176239014,
1770765841773,2.369153405616547,5.3680500984191895,-4.678950309753418,-2.4100501537323
1770765841813,,5.797050476074219,-6.228000164031982,-3.0349502563476562
1770765841820,,,,-3.1650002002716064
1770765841821,,4.600050449371338,-4.645050048828125,
1770765841856,,,,-4.302000045776367
1770765841857,1.5469851984402163,6.450000286102295,-5.955000400543213,
1770765841883,,,-6.645000457763672,-3.6910502910614014
1770765841884,,7.699950218200684,,
1770765841916,,,,-4.207950115203857
1770765841917,1.9312841319799374,6.4960503578186035,-5.63700008392334,-5.521050453186035
1770765841947,,5.8060503005981445,-6.232950210571289,-4.261050224304199
1770765841980,,,-3.790950298309326,-2.91795015335083
1770765841981,2.1676773012852544,5.287050247192383,,
1770765842015,,7.2330002784729,-6.757050514221191,-3.687000274658203
1770765842039,,,,-3.7320001125335693
1770765842040,1.595652398525304,7.603950500488281,-7.035000324249268,
1770765842065,,,,-4.359000205993652
1770765842066,,6.465000152587891,-6.799950122833252,
1770765842081,,,,-2.968050241470337
1770765842082,,5.778000354766846,-6.228000164031982,
1770765842120,,,-6.183000087738037,-3.1960501670837402
1770765842121,,5.050050258636475,-6.072000503540039,
1770765842122,1.671734812910973,,,
1770765842148,,6.939000129699707,-5.5600504875183105,-3.157050132751465
1770765842180,,,,-4.5769500732421875
1770765842181,1.095663794153307,5.629050254821777,-6.013050079345703,
1770765842204,,6.072000503540039,-6.424050331115723,-3.936000108718872
1770765842242,,,,-5.463000297546387
1770765842243,3.7856686838698925,6.841050148010254,-6.9649505615234375,
1770765842272,,,-4.044000148773193,-6.028050422668457
1770765842273,,7.468050479888916,,
1770765842283,,4.360050201416016,-1.0990500450134277,-5.134950160980225
1770765842304,2.342922725905968,7.504050254821777,-4.7989501953125,-3.2440502643585205
1770765842352,,,,-3.970950126647949
1770765842353,,10.044000625610352,-6.730950355529785,-4.402050018310547
1770765842370,,6.3160505294799805,-5.622000217437744,-3.7990500926971436
1770765842382,,,,-4.7659502029418945
1770765842383,1.1092258944175872,5.839950084686279,-4.858950138092041,
1770765842417,,6.379050254821777,-4.975950241088867,-4.077000141143799
1770765842423,,6.382950305938721,-4.669050216674805,-3.166950225830078
1770765842443,1.443498204720692,7.285950183868408,-6.693000316619873,-3.0930001735687256
1770765842471,,6.321000099182129,-6.253950119018555,-5.050950050354004
1770765842486,,,,-3.487950086593628
1770765842487,,6.357000350952148,-6.94605016708374,
1770765842504,,6.223050117492676,-5.4310503005981445,-2.6950502395629883
1770765842505,2.2347082143022763,,,
1770765842534,,6.916950225830078,-4.801050186157227,-2.4250500202178955
1770765842552,,,,-3.7270500659942627
1770765842553,,7.120950222015381,-3.6780002117156982,
1770765842564,,,,-5.488950252532959
1770765842565,,8.275050163269043,-6.372000217437744,
1770765842566,2.418830779547815,,,
1770765842589,,7.389000415802002,-5.577000141143799,-5.832000255584717
1770765842620,,,,-5.467950344085693
1770765842621,,6.072000503540039,-5.761050224304199,
1770765842648,,6.658950328826904,-6.192000389099121,-3.664950132369995
1770765842649,4.1181336099404655,,,
1770765842680,,6.783000469207764,-6.558000087738037,-2.2069501876831055
1770765842694,,4.770000457763672,-4.348950386047363,-3.8899502754211426
1770765842707,1.2116930665590615,6.082050323486328,-6.976950168609619,-4.837950229644775
1770765842752,,4.942050457000732,-4.345950126647949,-3.226950168609619
1770765842769,,,-6.232950210571289,-3.4420502185821533
1770765842770,1.1622066168611669,6.058050155639648,,
1770765842809,,6.561000347137451,-6.988950252532959,-4.543950080871582
1770765842828,,,,-2.020050048828125
1770765842829,2.165006135751254,6.382950305938721,-4.063950061798096,
1770765842864,,,-5.8690505027771,-4.303950309753418
1770765842865,,7.990050315856934,,
1770765842868,,6.517050266265869,-3.9529502391815186,-5.331000328063965
1770765842910,,,-5.383050441741943,-5.602050304412842
1770765842911,1.844965001009491,7.690950393676758,,
1770765842955,,,,-5.48205041885376
1770765842956,,5.827950477600098,-4.7719502449035645,
1770765842970,,5.413950443267822,-3.1300501823425293,-2.8819501399993896
1770765842971,3.166888296168293,,,
1770765843022,,,,-4.302000045776367
1770765843023,,7.525050163269043,-5.233950138092041,-5.2860002517700195
1770765843029,3.7870184664662574,9.04800033569336,-7.425000190734863,-5.323950290679932
1770765843073,,8.931000709533691,-7.437000274658203,-4.789950370788574
1770765843083,,,-6.144000053405762,-2.959050178527832
1770765843084,,7.150050163269043,,
1770765843093,,4.546950340270996,-3.6610500812530518,-2.9920501708984375
1770765843094,1.9453229788992048,,,
1770765843140,,5.179050445556641,-4.990050315856934,-3.7420501708984375
1770765843157,,6.739950180053711,-4.959000110626221,-3.3919501304626465
1770765843171,,,-4.902000427246094,-3.3919501304626465
1770765843172,1.2777435890175746,6.454950332641602,,
1770765843194,,5.878050327301025,-4.107000350952148,-3.0420000553131104
1770765843225,,7.369950294494629,-6.94605016708374,-4.048050403594971
1770765843240,1.3211767313842413,7.342950344085693,-6.760050296783447,-4.7470502853393555
1770765843269,,6.048000335693359,-5.871000289916992,-5.568000316619873
1770765843292,,5.782050132751465,-5.2510504722595215,-4.14900016784668
1770765843294,0.7899829670120097,6.651000499725342,-4.777050018310547,-3.4830002784729004
1770765843355,,6.856950283050537,-6.29295015335083,-4.314000129699707
1770765843356,1.8512983173913913,7.992000579833984,,
1770765843414,,,,-2.5420501232147217
1770765843415,,5.169000148773193,-5.467050075531006,
1770765843436,,,,-2.956050157546997
1770765843437,2.1267331852968465,6.273000240325928,-7.815000534057617,
1770765843467,,,,-3.636000156402588
1770765843468,,6.766050338745117,-7.159050464630127,
1770765843496,,5.635950088500977,-6.381000518798828,-3.2509500980377197
1770765843497,1.5639391565610232,,,
1770765843524,,6.891000270843506,-8.323050498962402,-5.121000289916992
1770765843562,,5.422950267791748,-6.232950210571289,-4.015050411224365
1770765843563,1.4946636805310283,5.2099504470825195,,
1770765843585,,4.522950172424316,-3.6040501594543457,-4.197000026702881
1770765843618,,,,-5.4340500831604
1770765843619,1.2232530008977383,5.734050273895264,-4.264950275421143,
1770765843669,,,,-4.120050430297852
1770765843670,,8.043000221252441,-5.500050067901611,
1770765843687,,8.677050590515137,-6.429000377655029,-6.712950229644775
1770765843699,3.425900673606145,8.754000663757324,-3.324000120162964,-4.13700008392334
1770765843744,,12.345000267028809,-9.072000503540039,-3.885000228881836
1770765843759,,,,-5.892000198364258
1770765843760,2.191980732025611,7.906050205230713,-4.945050239562988,
1770765843799,,5.505000114440918,-0.9610500335693359,-0.2770500183105469
1770765843800,,-1.2490500211715698,,
1770765843819,,8.848950386047363,-7.270050525665283,-5.467950344085693
1770765843820,1.1653204144111644,,,
1770765843854,,,-5.617950439453125,-5.212050437927246
1770765843855,,4.477050304412842,,
1770765843870,,6.153000354766846,-7.171050548553467,-1.426050066947937
1770765843881,,,-8.37600040435791,0.15495000779628754
1770765843883,5.605204527472642,5.3680500984191895,,
1770765843909,,7.225950241088867,-10.702950477600098,-0.8470500111579895
1770765843963,,,,-1.5799500942230225
1770765843965,,6.853050231933594,-10.258050918579102,
1770765843967,2.2000053449045622,,,
1770765844020,,,,-2.884050130844116
1770765844021,,6.1870503425598145,-8.044950485229492,-1.5720000267028809
1770765844023,4.882641793891005,2.4880502223968506,-9.858000755310059,-4.05495023727417
1770765844071,,,-9.049050331115723,-6.258000373840332
1770765844072,,2.2360501289367676,-4.726950168609619,
1770765844084,,,,-5.937000274658203
1770765844085,4.63506911900082,9.5149507522583,-3.9270002841949463,
1770765844128,,,,-6.615000247955322
1770765844129,,11.497950553894043,-3.750000238418579,
1770765844145,,,-4.333950042724609,-4.9770002365112305
1770765844146,2.3566308642108904,6.397950172424316,,
1770765844163,,,,-3.7200002670288086
1770765844164,,6.067050457000732,-4.78695011138916,
1770765844185,,8.694000244140625,-5.493000030517578,-3.1720502376556396
1770765844228,,8.789999961853027,-4.945050239562988,-3.6790502071380615
1770765844229,1.3671839250790314,,,
1770765844270,,,,-5.164050102233887
1770765844271,,7.590000152587891,-9.364950180053711,-0.6840000152587891
1770765844288,4.59190196538079,7.3309502601623535,-6.465000152587891,1.3240500688552856
1770765844347,,,,0.6529500484466553
1770765844348,,8.857050895690918,-5.866950511932373,
1770765844349,2.7110384611738483,,,
1770765844374,,8.253000259399414,-3.739950180053711,-6.094950199127197
1770765844403,,,,-6.421050071716309
1770765844404,,7.1569504737854,-3.7140002250671387,
1770765844409,1.0449483992873316,7.185000419616699,-4.770000457763672,-4.644000053405762
1770765844434,,7.396050453186035,-5.299050331115723,-4.394999980926514
1770765844458,,7.1449503898620605,-4.309950351715088,-5.983050346374512
1770765844472,,,-4.461000442504883,-3.337050199508667
1770765844473,,7.420050144195557,,
1770765844488,1.3322793052801774,8.220000267028809,-3.95805025100708,-6.016050338745117
1770765844514,,7.273950576782227,-3.4870500564575195,-2.998950242996216
1770765844550,2.269304116417746,6.073950290679932,-4.795950412750244,-4.627050399780273
1770765844570,,3.988950252532959,-5.304000377655029,7.503000259399414
1770765844611,,,-3.7950000762939453,-5.176050186157227
1770765844612,0.8797998590349144,8.851950645446777,-3.9180002212524414,
1770765844636,,7.2210001945495605,-5.524050235748291,-6.556950092315674
1770765844671,,,-4.293000221252441,-4.639050006866455
1770765844672,1.1062099277113613,7.366950511932373,-3.5560500621795654,
1770765844704,,8.325000762939453,-4.305000305175781,-4.354950428009033
1770765844733,,7.651950359344482,-3.9630002975463867,-2.3580000400543213
1770765844752,,,,-3.699000120162964
1770765844753,1.0430085249613685,7.213950157165527,-4.1860504150390625,
1770765844789,,6.886050224304199,-3.9300003051757812,-3.718050241470337
1770765844816,1.1729722544550552,8.184000015258789,-3.2350502014160156,-5.713950157165527
1770765844842,,,,-3.835050106048584
1770765844843,,5.533050060272217,-4.686000347137451,
1770765844875,,,-6.0960001945495605,-4.22504997253418
1770765844876,0.9488737005074861,5.641050338745117,,
1770765844903,,6.9120001792907715,-5.850000381469727,-5.023050308227539
1770765844934,,,,-4.9270501136779785
1770765844935,2.013647602871114,7.506000518798828,,
1770765844954,,9.096000671386719,-4.147050380706787,-6.706050395965576
1770765845009,,,-3.7950000762939453,-5.062950134277344
1770765845010,,7.219050407409668,,
1770765845016,,8.131050109863281,-4.179000377655029,-6.363000392913818
1770765845017,2.381809711507419,,,
1770765845046,,,,-4.539000034332275
1770765845047,,8.622000694274902,-5.0809502601623535,
1770765845064,,7.9009504318237305,-4.32705020904541,-5.547000408172607
1770765845076,1.5876692914431831,7.675950527191162,-4.477950096130371,-4.156050205230713
1770765845109,,,,-6.001950263977051
1770765845110,,7.152000427246094,-4.576050281524658,
1770765845118,,,-2.811000108718872,-4.888050079345703
1770765845119,,6.859950542449951,,
1770765845137,3.0904685448522513,8.019000053405762,-4.513950347900391,-6.696000099182129
1770765845179,,7.237950325012207,-3.681000232696533,-5.128050327301025
1770765845198,,7.120950222015381,-3.232950210571289,-4.750050067901611
1770765845199,1.7045905430928099,,,
1770765845231,,8.155050277709961,-3.0580501556396484,-6.684000492095947
1770765845241,,6.3349504470825195,-5.950050354003906,-3.6750001907348633
1770765845275,,7.456050395965576,-3.2539501190185547,-4.197000026702881
1770765845279,,8.119050025939941,-5.248950481414795,-5.085000038146973
1770765845280,2.230353197087525,,,
1770765845318,,7.891950607299805,-5.4310503005981445,-4.306950092315674
1770765845339,,7.33905029296875,-4.284000396728516,-4.921950340270996
1770765845340,1.984840518684823,,,
1770765845374,,,,-4.90500020980835
1770765845375,,6.259050369262695,-3.352950096130371,
1770765845394,,,-8.020950317382812,-2.728950023651123
1770765845395,,8.533050537109375,,
1770765845399,,,,-4.303950309753418
1770765845400,2.678969751441435,6.0769500732421875,-4.096950054168701,
1770765845443,,5.5980000495910645,-5.54295015335083,-3.7990500926971436
1770765845461,2.442661005685457,8.348999977111816,-6.025050163269043,-4.338000297546387
1770765845504,,6.157950401306152,-5.596050262451172,-3.646050214767456
1770765845542,,,,-3.6120002269744873
1770765845543,,5.875950336456299,-7.111950397491455,-4.941000461578369
1770765845544,2.2450833112725332,,,
1770765845577,,7.9009504318237305,-8.517000198364258,-3.5400002002716064
1770765845602,,,,-4.896000385284424
1770765845603,0.4117833877580939,5.2009501457214355,-6.082050323486328,-5.287950038909912
1770765845645,,,-5.662950038909912,-5.707050323486328
1770765845646,,4.903950214385986,-6.736050128936768,
1770765845664,1.4470627368384252,4.3309502601623535,-6.010050296783447,-6.517050266265869
1770765845711,,,-8.842950820922852,-3.5520002841949463
1770765845712,,10.420050621032715,,
1770765845723,1.7855612130633645,6.349950313568115,-7.389000415802002,-5.158950328826904
