timestamp,LinearAccelerometerSensor,AccX,AccY,AccZ
1770770161603,0.053544686685839095,0.18900001049041748,9.145050048828125,-3.4830002784729004
1770770161642,,0.20805001258850098,9.193050384521484,-3.5400002002716064
1770770161663,0.016489039410598275,0.1870500147342682,9.195000648498535,-3.5209500789642334
1770770161718,,0.17505000531673431,,
1770770161719,,0.19395001232624054,9.15195083618164,-3.4830002784729004
1770770161744,0.06318242810455006,,,
1770770161745,,0.2989500164985657,9.232950210571289,-3.4930500984191895
1770770161779,,0.36900001764297485,9.196950912475586,-3.454050064086914
1770770161806,0.12413427326452806,,,
1770770161807,,0.43095001578330994,9.21405029296875,-3.454050064086914
1770770161829,,0.40005001425743103,,
1770770161830,,,9.196950912475586,-3.44700026512146
1770770161848,,0.3349500298500061,,
1770770161849,,,9.195000648498535,-3.4830002784729004
1770770161864,0.06569539393187335,,,
1770770161865,,0.25905001163482666,9.160950660705566,-3.574050188064575
1770770161884,,0.16305001080036163,9.17805004119873,-3.5880000591278076
1770770161909,,0.08205000311136246,9.148950576782227,-3.6289501190185547
1770770161926,0.10064925820998283,0.07200000435113907,,-3.6600000858306885
1770770161927,,,9.148950576782227,
1770770161981,,0.09405000507831573,,-3.6720001697540283
1770770161982,,,9.175950050354004,-3.6190502643585205
1770770161994,,0.30900001525878906,9.181050300598145,-3.627000093460083
1770770162008,0.15332599799433017,0.45000001788139343,9.259950637817383,-3.624000072479248
1770770162047,,0.6199500560760498,9.247950553894043,-3.574050188064575
1770770162048,,0.6250500082969666,9.259950637817383,-3.507000207901001
1770770162067,0.11628627739166937,,,
1770770162068,,0.534000039100647,9.21405029296875,-3.466050148010254
1770770162104,,0.39000001549720764,,-3.44700026512146
1770770162105,,,9.223950386047363,
1770770162110,,0.2659500241279602,9.271950721740723,-3.4300501346588135
1770770162130,0.1629287967735276,0.14400000870227814,,-3.4519500732421875
1770770162131,,,9.159000396728516,
1770770162161,,0.07200000435113907,,-3.4780502319335938
1770770162162,,,9.127950668334961,
1770770162192,0.28169334754096653,-0.12300000339746475,9.085050582885742,-3.4999501705169678
1770770162214,,-0.19305001199245453,,
1770770162215,,,9.075000762939453,-3.5809502601623535
1770770162249,,-0.21000000834465027,9.09000015258789,-3.5119502544403076
1770770162269,0.09114644243400138,,,
1770770162270,,-0.12300000339746475,9.157050132751465,-3.5020501613616943
1770770162311,,-0.14505000412464142,9.111000061035156,-3.5500502586364746
1770770162330,0.08939785290865057,,,
1770770162331,,0.13695000112056732,9.24000072479248,-3.355950117111206
1770770162380,,0.8089500665664673,,-3.892050266265869
1770770162381,,,9.640050888061523,
1770770162392,0.06071005834716805,,,
1770770162393,,0.2350500077009201,9.037050247192383,-3.4810502529144287
1770770162434,,0.2989500164985657,,
1770770162435,,,9.640050888061523,-3.2910001277923584
1770770162454,0.5783735462695622,-0.10200000554323196,,-2.8339500427246094
1770770162455,,,9.243000030517578,
1770770162490,,-0.22605000436306,,
1770770162491,,,9.364950180053711,-2.5350000858306885
1770770162512,,-0.11400000751018524,,-2.6860501766204834
1770770162513,,,9.205050468444824,-2.9710500240325928
1770770162532,0.4587453828678043,,,
1770770162533,,0.022050000727176666,9.589950561523438,-2.9200501441955566
1770770162583,,-0.013050000183284283,9.385950088500977,-2.640000104904175
1770770162593,0.2553168507255483,0.08205000311136246,,-3.4609501361846924
1770770162594,,,9.231000900268555,
1770770162651,,-0.3169500231742859,10.52400016784668,-3.3439502716064453
1770770162654,0.4217999709486103,-0.47505003213882446,,-3.394050121307373
1770770162655,,,8.074049949645996,
1770770162709,,-0.3630000054836273,9.595050811767578,-3.687000274658203
1770770162714,0.9431275582452638,-0.013050000183284283,,-3.385050058364868
1770770162715,,,9.184950828552246,
1770770162766,,-0.010950000956654549,8.503050804138184,-3.970950126647949
1770770162783,,0.45705002546310425,,
1770770162784,,,9.607050895690918,-3.639000177383423
1770770162796,0.14843826544714878,0.20100000500679016,8.701950073242188,-3.6409502029418945
1770770162818,,-0.15900000929832458,9.175950050354004,-2.9059500694274902
1770770162855,,-0.28395000100135803,9.184950828552246,-3.5089502334594727
1770770162857,0.532931863161995,,,
1770770162858,,-0.35805001854896545,9.312000274658203,-3.1909501552581787
1770770162913,,-0.322050005197525,9.130050659179688,-3.2320501804351807
1770770162918,0.12433139608767993,0.0070500001311302185,9.324000358581543,-3.009000062942505
1770770162980,0.8935995788971088,0.5700000524520874,,
1770770162981,,,9.199950218200684,-2.6140501499176025
1770770163041,,0.2989500164985657,,-2.442000150680542
1770770163042,,,9.634950637817383,-2.539950132369995
1770770163059,0.2540446417797362,0.5389500260353088,,
1770770163060,,,9.49905014038086,-2.6329500675201416
1770770163093,,0.3349500298500061,,
1770770163094,,,9.046950340270996,-3.157050132751465
1770770163119,,0.24195000529289246,,-3.2629501819610596
1770770163120,,,9.065999984741211,
1770770163121,0.47614205684039107,,,
1770770163154,,0.6919500231742859,,
1770770163155,,,9.019950866699219,-3.8179502487182617
1770770163187,0.752486993100621,0.8070000410079956,,-3.8710501194000244
1770770163188,,,9.098999977111816,-4.122000217437744
1770770163205,,1.1970000267028809,9.019950866699219,-3.892050266265869
1770770163243,0.7838245694644344,1.6740000247955322,,
1770770163244,,,,-3.95205020904541
1770770163245,,,8.98905086517334,-4.077000141143799
1770770163313,,1.746000051498413,,
1770770163314,,1.810050129890442,8.994000434875488,-4.045950412750244
1770770163327,0.9776842007658477,2.434950113296509,9.001049995422363,-4.471950054168701
1770770163371,,2.284050226211548,,
1770770163372,,,9.010950088500977,-4.015050411224365
1770770163383,0.47226345670721354,,,
1770770163385,,2.263050079345703,8.770950317382812,-4.132050037384033
1770770163431,,2.253000020980835,8.95305061340332,-3.96405029296875
1770770163432,,,9.067950248718262,
1770770163446,0.23138663598390222,2.1790502071380615,,
1770770163447,,,8.95995044708252,-3.925950288772583
1770770163480,,2.1499500274658203,,-4.14900016784668
1770770163481,,,8.89995002746582,
1770770163504,3.055366772301036,,,
1770770163505,,2.710050106048584,9.25005054473877,-5.518050193786621
1770770163535,,-0.5350500345230103,8.63700008392334,-4.857000350952148
1770770163590,1.800328924007816,,,
1770770163591,,2.83305025100708,7.519050121307373,-4.077000141143799
1770770163644,,2.7750000953674316,,
1770770163650,,1.0320000648498535,9.589950561523438,-3.957000255584717
1770770163651,1.0351441580587974,,,
1770770163699,,0.44805002212524414,,
1770770163700,,1.759950041770935,9.363000869750977,-2.7240002155303955
1770770163709,0.9396747161229073,2.302950143814087,,
1770770163710,,,9.256950378417969,-3.14805006980896
1770770163755,,4.02495002746582,9.1399507522583,-2.737950086593628
1770770163770,1.3121599937730242,3.340050220489502,8.398050308227539,-2.4870002269744873
1770770163789,,2.2680001258850098,9.454050064086914,-2.8030500411987305
1770770163808,,3.450000047683716,10.030950546264648,-2.608950138092041
1770770163856,0.5203120738534642,3.7300500869750977,9.865050315856934,-3.4260001182556152
1770770163910,0.8010771414082519,,,
1770770163911,,2.7199501991271973,,
1770770163912,,2.6770501136779785,8.994000434875488,-2.449050188064575
1770770163970,0.8899327314865124,,,
1770770163971,,2.683950185775757,,
1770770163972,,,9.403050422668457,-2.3580000400543213
1770770163996,,1.225950002670288,8.869050025939941,-3.4609501361846924
1770770164028,,1.297950029373169,8.788050651550293,-2.6670000553131104
1770770164031,0.7538541074124381,1.4179500341415405,9.432000160217285,-2.518050193786621
1770770164059,,0.8959500193595886,,-2.808000087738037
1770770164060,,,9.193050384521484,
1770770164084,,0.8190000653266907,9.195000648498535,-3.0930001735687256
1770770164112,0.33980117180348873,,,
1770770164113,,1.3890000581741333,9.295950889587402,-2.9440500736236572
1770770164139,,2.1259500980377197,,-3.258000135421753
1770770164140,,,9.256950378417969,
1770770164174,0.6363266515744025,2.041949987411499,,
1770770164175,,1.8030000925064087,9.111000061035156,-3.4930500984191895
1770770164199,,1.5520501136779785,8.998950004577637,-3.7540502548217773
1770770164235,0.7449270983364329,1.585050106048584,8.914950370788574,-3.847050189971924
1770770164270,,1.5520501136779785,8.842950820922852,-3.9379501342773438
1770770164296,0.5677999778294736,,,
1770770164297,,1.2480000257492065,,-3.9930002689361572
1770770164298,,,9.039000511169434,
1770770164316,,1.0900501012802124,9.049050331115723,-3.0349502563476562
1770770164362,,0.2970000207424164,,
1770770164363,,,8.605950355529785,-3.177000045776367
1770770164376,0.7072745900253279,,,
1770770164377,,0.7300500273704529,9.211950302124023,-2.590050220489502
1770770164417,,1.5589500665664673,8.845050811767578,-2.1090002059936523
1770770164438,0.9290764347164393,,,
1770770164439,,1.659000039100647,9.849000930786133,-2.2639501094818115
1770770164468,,1.5559500455856323,9.031949996948242,-1.735050082206726
1770770164499,2.1551945632585627,3.079050064086914,8.011950492858887,-0.8800500631332397
1770770164524,,2.215050220489502,,
1770770164525,,,9.604050636291504,-1.807050108909607
1770770164559,2.6623545790525442,,,
1770770164560,,-0.35805001854896545,4.411050319671631,-4.429050445556641
1770770164561,,,9.937050819396973,
1770770164579,,3.2539501190185547,,
1770770164580,,,12.540000915527344,-4.587000370025635
1770770164639,,3.697050094604492,7.090050220489502,-2.080049991607666
1770770164640,,,9.907950401306152,
1770770164641,2.222314255186181,0.7519500255584717,10.921050071716309,-2.4439501762390137
1770770164664,,0.18900001049041748,8.599050521850586,-2.1229500770568848
1770770164691,,1.0900501012802124,,-1.519950032234192
1770770164692,,,7.3750505447387695,
1770770164715,0.6542596379402154,,,
1770770164716,,2.205000162124634,9.547050476074219,-2.511000156402588
1770770164733,,1.1569499969482422,10.945050239562988,-4.282950401306152
1770770164749,,5.008950233459473,,-4.873950004577637
1770770164750,,,4.969050407409668,
1770770164762,4.073982795180864,,,
1770770164763,,2.584050178527832,9.529950141906738,-5.365050315856934
1770770164798,,1.1850000619888306,13.198050498962402,-3.05400013923645
1770770164822,3.3234397611982494,,,
1770770164823,,4.4730000495910645,,-2.728950023651123
1770770164824,,,5.544000148773193,
1770770164856,,3.7830002307891846,10.033050537109375,-4.2970499992370605
1770770164866,,2.3010001182556152,,
1770770164867,,,7.963950157165527,-5.164050102233887
1770770164903,2.938789733851757,,,
1770770164905,,-1.2030000686645508,7.722000598907471,-7.06695032119751
1770770164932,,-1.5670500993728638,,
1770770164933,,,8.580000877380371,-5.845950126647949
1770770164964,1.047994328396134,,,
1770770164965,,1.5180001258850098,,-1.3210500478744507
1770770164966,,,7.107000350952148,
1770770165012,,3.369000196456909,,
1770770165013,,,8.734950065612793,-1.29705011844635
1770770165021,,2.2360501289367676,10.006950378417969,-3.076050043106079
1770770165029,1.177438727321458,0.8290500640869141,8.740050315856934,-3.7219502925872803
1770770165071,,1.0390501022338867,7.549950122833252,-4.984050273895264
1770770165086,2.8010779826140255,2.01104998588562,9.25200080871582,-6.5209503173828125
1770770165119,,2.968950033187866,8.398050308227539,-6.379950523376465
1770770165131,,2.7490501403808594,7.308000564575195,-6.32295036315918
1770770165166,1.44553880724016,,,
1770770165167,,2.622000217437744,7.369950294494629,-5.824950218200684
1770770165202,,1.9560000896453857,6.934950351715088,-5.248050212860107
1770770165229,2.270129966880381,,,
1770770165230,,1.7170500755310059,,-4.2870001792907715
1770770165231,,,8.107950210571289,-4.696950435638428
1770770165270,,0.7849500179290771,,
1770770165271,,0.33105000853538513,7.147950172424316,-4.981950283050537
1770770165302,1.9902724093021462,-0.6139500141143799,,
1770770165303,,,9.706950187683105,-5.269050121307373
1770770165318,,-0.3940500319004059,,-6.301050186157227
1770770165319,,,8.179950714111328,
1770770165335,,0.41895002126693726,10.272000312805176,-6.718050479888916
1770770165349,2.4917747610198964,,,
1770770165350,,-0.0990000069141388,9.706950187683105,-6.715050220489502
1770770165404,,-0.06300000101327896,,
1770770165405,,-0.322050005197525,,-6.552000522613525
1770770165406,,,9.577950477600098,
1770770165430,3.131595365623819,,,
1770770165431,,1.9440001249313354,11.26395034790039,-4.43595027923584
1770770165461,,3.7140002250671387,9.058050155639648,-1.2250500917434692
1770770165470,,5.232000350952148,10.420950889587402,-0.3079500198364258
1770770165492,5.3231009235578854,2.6200501918792725,,
1770770165493,,,11.66295051574707,-0.11205000430345535
1770770165525,,-0.8299500346183777,10.150050163269043,-0.07395000010728836
1770770165543,,-3.1690502166748047,,
1770770165544,,,7.900050163269043,-1.0699501037597656
1770770165560,3.0056640878833907,-2.199000120162964,8.443050384521484,-1.5580500364303589
1770770165605,,-1.4140501022338867,9.742950439453125,-2.4079501628875732
1770770165606,,,9.187950134277344,
1770770165613,0.6795483589255276,,,
1770770165614,,,8.176950454711914,-4.162950038909912
1770770165673,,1.4299501180648804,,
1770770165674,,0.9790500402450562,,-4.759050369262695
1770770165675,,,9.418050765991211,
1770770165681,,-1.078950047492981,7.324950218200684,-4.78095006942749
1770770165698,2.205012169283202,,,
1770770165699,,-0.21405000984668732,6.348000526428223,-3.787050247192383
1770770165720,,0.453000009059906,8.0149507522583,-4.201050281524658
1770770165733,,-0.21705001592636108,,
1770770165734,,,6.8959503173828125,-5.176050186157227
1770770165755,0.8105527946531764,-0.7429500222206116,,
1770770165756,,,8.616000175476074,-5.142000198364258
1770770165798,,-3.0300002098083496,8.299050331115723,-4.857000350952148
1770770165815,,-5.785950183868408,7.204950332641602,-2.8530001640319824
1770770165834,4.539000518953437,-2.7589502334594727,12.624000549316406,-1.735050082206726
1770770165847,,-1.990950107574463,11.87700080871582,-1.0579500198364258
1770770165873,,-0.3340500295162201,,
1770770165874,,,10.150050163269043,-1.5100500583648682
1770770165875,2.046466932315256,-0.07500000298023224,,-2.0179500579833984
1770770165876,,,9.79800033569336,
1770770165902,,-2.6010000705718994,,-0.9280500411987305
1770770165903,,,9.26400089263916,
1770770165920,,-3.8269500732421875,9.20205020904541,-0.7249500155448914
1770770165944,,-1.540950059890747,,
1770770165945,,,11.0910005569458,-1.5559500455856323
1770770165955,1.7592629784922111,-0.16200000047683716,,
1770770165956,,,10.684050559997559,-3.346950054168701
1770770166013,,-0.5089499950408936,8.63895034790039,-4.659000396728516
1770770166033,3.375893227384811,-1.9480501413345337,7.962000370025635,-7.132050514221191
1770770166075,,-4.440000057220459,6.681000232696533,-7.470000267028809
1770770166078,1.7979546661899444,-0.14505000412464142,,-1.7760001420974731
1770770166079,,,9.838950157165527,
1770770166121,,1.5400500297546387,,
1770770166122,,1.8960001468658447,9.576000213623047,-4.338000297546387
1770770166139,1.0793743910619347,,,
1770770166140,,-0.6570000052452087,9.24000072479248,-5.176050186157227
1770770166176,,-2.1660001277923584,,
1770770166177,,,7.738950252532959,-5.128050327301025
1770770166209,,-1.6489500999450684,,
1770770166210,,-1.6150500774383545,8.006999969482422,-4.299000263214111
1770770166221,2.1867940581050327,,,
1770770166222,,-2.368950128555298,9.343050003051758,-3.283950090408325
1770770166277,,-1.9999500513076782,,
1770770166278,,,10.500000953674316,-2.9730000495910645
1770770166295,0.7095069745684056,-0.18105000257492065,,-4.266000270843506
1770770166296,,,8.689949989318848,
1770770166330,,-1.864050030708313,9.070050239562988,-6.885000228881836
1770770166346,3.2149625549983476,-4.050000190734863,6.681000232696533,-5.899050235748291
1770770166395,,-4.183950424194336,7.717950344085693,-6.3319501876831055
1770770166404,0.8740987564112108,-1.4929500818252563,,
1770770166405,,,7.31505012512207,-5.674050331115723
1770770166450,,-1.3560000658035278,,-4.156050205230713
1770770166451,,,8.173049926757812,-1.9669500589370728
1770770166482,,0.39000001549720764,8.641950607299805,-2.4370501041412354
1770770166483,2.0946965142075595,,,
1770770166484,,0.5010000467300415,8.398050308227539,-2.7720000743865967
1770770166504,,-1.3489500284194946,9.6670503616333,-3.366000175476074
1770770166545,2.810244439920355,-2.0650501251220703,,
1770770166546,,-2.8309500217437744,9.985050201416016,-2.9280002117156982
1770770166610,1.495029957703983,,,
1770770166611,,-1.9140000343322754,,-5.044050216674805
1770770166612,,,8.789999961853027,-4.89300012588501
1770770166665,1.180936644635341,,,
1770770166666,,-1.3180500268936157,,
1770770166667,,-1.0069500207901,,-4.73805046081543
1770770166668,,,8.447999954223633,
1770770166723,,-0.04200000315904617,,
1770770166724,,-0.3169500231742859,8.66295051574707,-4.6180500984191895
1770770166725,,-1.0279500484466553,,
1770770166726,,,9.637950897216797,-4.492950439453125
1770770166747,1.2291345053306897,-0.9570000171661377,,-3.4230000972747803
1770770166748,,,8.68005084991455,
1770770166780,,-1.2679500579833984,9.822000503540039,-3.808950185775757
1770770166807,1.3139133110133379,,,
1770770166808,,-0.6670500040054321,10.284000396728516,-3.639000177383423
1770770166839,,0.20595000684261322,9.147000312805176,-3.8230502605438232
1770770166874,0.2214017461616125,-0.4710000157356262,10.138050079345703,-4.207950115203857
1770770166890,,1.3099501132965088,9.942000389099121,-3.088050127029419
1770770166925,,1.6260000467300415,,-3.696000099182129
1770770166926,,,9.873000144958496,
1770770166930,0.4095682561601745,0.5410500168800354,,-3.205050230026245
1770770166931,,,10.191000938415527,
1770770166949,,-0.45600003004074097,8.938950538635254,-3.315000057220459
1770770166999,,-1.024049997329712,,-3.1620001792907715
1770770167000,,,10.243950843811035,
1770770167013,1.3322743392585072,-0.5539500117301941,8.878950119018555,-4.276050090789795
1770770167056,,0.2350500077009201,9.520950317382812,-4.522050380706787
1770770167075,0.8968310714224796,1.1950500011444092,,-3.624000072479248
1770770167076,,,8.701950073242188,
1770770167115,,1.1730000972747803,8.756999969482422,-5.250000476837158
1770770167131,1.635655096212297,2.2290000915527344,8.199000358581543,-5.185050010681152
1770770167151,,0.999000072479248,8.641950607299805,-3.7420501708984375
1770770167192,2.1762948928050214,,,
1770770167193,,2.3590500354766846,,-3.378000259399414
1770770167194,,,8.25195026397705,
1770770167218,,1.6000500917434692,8.793000221252441,-3.808950185775757
1770770167274,0.9595705249366082,,,
1770770167275,,3.201000213623047,,-4.563000202178955
1770770167276,,,10.2649507522583,-4.4670000076293945
1770770167324,,1.5349500179290771,,
1770770167325,,0.43095001578330994,9.223950386047363,-4.3470001220703125
1770770167326,,,8.434050559997559,
1770770167334,0.932278268955794,,,
1770770167335,,0.016950000077486038,9.619050025939941,-4.756950378417969
1770770167355,,0.7159500122070312,8.311050415039062,-5.058000087738037
1770770167389,,-0.2740500271320343,9.834000587463379,-3.925950288772583
1770770167405,2.298103056121543,0.6850500106811523,,
1770770167406,,,7.969050407409668,-3.7609500885009766
1770770167420,,-0.40605002641677856,10.684050559997559,-3.5910000801086426
1770770167441,,-0.3630000054836273,8.290050506591797,-3.114000082015991
1770770167457,1.4066698083495963,-1.5310500860214233,,-2.9629502296447754
1770770167458,,,10.39905071258545,
1770770167487,,0.22500000894069672,,-3.397050142288208
1770770167488,,,6.808050155639648,
1770770167498,,-1.9290001392364502,9.633000373840332,-4.591950416564941
1770770167525,,-1.6200001239776611,,
1770770167526,,,9.766950607299805,-4.510050296783447
1770770167536,0.8153439413889727,,,
1770770167542,,-1.311000108718872,9.079950332641602,-4.474050045013428
1770770167603,1.432060481978607,,,
1770770167604,,1.1400001049041748,,-3.178950071334839
1770770167605,,,9.553950309753418,
1770770167636,,-2.496000051498413,,
1770770167637,,,8.596050262451172,-2.668950080871582
1770770167658,3.11507747817086,,,
1770770167659,,-2.3239500522613525,13.906950950622559,-3.7270500659942627
1770770167693,,-1.4590500593185425,,-6.970950126647949
1770770167694,,,5.419050216674805,
1770770167714,,-0.9540000557899475,6.322050094604492,-5.485050201416016
1770770167720,1.435841972485967,-1.6200001239776611,8.215950012207031,-5.95395040512085
1770770167757,,-0.9949500560760498,9.367050170898438,-5.2669501304626465
1770770167778,,-1.2889500856399536,7.054050445556641,-4.972050189971924
1770770167798,1.3142818889206842,,,
1770770167799,,-1.596000075340271,,-3.3490500450134277
1770770167800,,,11.10300064086914,-4.363950252532959
1770770167824,,-2.5099501609802246,9.789000511169434,-3.627000093460083
1770770167862,1.048755664560072,-1.7389501333236694,7.2270002365112305,-4.575000286102295
1770770167891,,-2.556000232696533,9.50100040435791,-3.4900500774383545
1770770167924,2.2391877527336086,-2.281050205230713,9.160950660705566,-3.220050096511841
1770770167958,,-2.6449501514434814,8.998950004577637,-2.638050079345703
1770770167982,0.8413653407162269,,,
1770770167984,,-2.5489501953125,10.471050262451172,-2.937000036239624
1770770168026,,-2.63700008392334,,
1770770168027,,,9.95895004272461,-3.0259501934051514
1770770168044,,-1.6750500202178955,,
1770770168045,,,6.930000305175781,-3.6409502029418945
1770770168063,0.7651704489862975,,,
1770770168064,,-1.960050106048584,9.918000221252441,-3.0900001525878906
1770770168092,,-0.8730000257492065,11.472000122070312,-2.8129501342773438
1770770168124,0.5988617750095818,-0.9109500646591187,9.432000160217285,-2.8560001850128174
1770770168161,,0.10095000267028809,8.958000183105469,-3.80400013923645
1770770168185,1.4766638181126477,0.5100000500679016,,-4.492950439453125
1770770168186,,,10.330050468444824,-3.220050096511841
1770770168210,,0.031050002202391624,9.7339506149292,-3.853950262069702
1770770168230,,-0.22905001044273376,8.460000038146973,-4.513050079345703
1770770168245,0.9030619813784384,,,
1770770168246,,0.3949500322341919,7.678950309753418,-4.60605001449585
1770770168265,,-0.06599999964237213,8.742000579833984,-5.299950122833252
1770770168298,,0.16995000839233398,,
1770770168299,,,7.750950336456299,-5.476950168609619
1770770168320,,0.6180000305175781,8.491050720214844,-4.2870001792907715
1770770168337,2.053271948260133,0.7780500650405884,8.944050788879395,-4.548000335693359
1770770168362,,0.2760000228881836,9.051000595092773,-4.405050277709961
1770770168376,,-0.5899500250816345,,
1770770168377,,,9.097050666809082,-4.266000270843506
1770770168387,1.3415695508713419,-1.6030501127243042,9.279000282287598,-3.4399502277374268
1770770168428,,-2.299950122833252,,-3.280050039291382
1770770168429,,,9.445950508117676,-2.3239500522613525
1770770168448,2.558083053755704,-3.7770001888275146,,-2.281050205230713
1770770168449,,,9.50100040435791,
1770770168486,,-3.68595027923584,,
1770770168487,,,10.777950286865234,-1.852950096130371
1770770168499,,-2.281050205230713,,-2.7810001373291016
1770770168500,,,8.41200065612793,
1770770168508,2.0514393940210147,,,
1770770168509,,-1.3369500637054443,8.788050651550293,-3.325050115585327
1770770168529,,0.14595000445842743,8.497950553894043,-4.13700008392334
1770770168563,,0.3430500030517578,,
1770770168564,,,,-3.748950242996216
1770770168565,,,9.700050354003906,
1770770168590,1.3381337188621956,,,
1770770168591,,-0.7219500541687012,9.813000679016113,-3.258000135421753
1770770168630,,-2.0680501461029053,9.133049964904785,-3.114000082015991
1770770168650,0.9851597579421678,,,
1770770168651,,-0.6760500073432922,8.37405014038086,-3.0330002307891846
1770770168698,,0.18900001049041748,8.260950088500977,-4.318950176239014
1770770168711,1.8050111422630741,0.8359500169754028,8.778000831604004,-5.829000473022461
1770770168767,,-0.9280500411987305,7.4760003089904785,-5.44605016708374
1770770168771,1.2685279990216052,,,
1770770168773,,-1.8450000286102295,7.086000442504883,-5.299950122833252
1770770168814,,-1.5739500522613525,,-4.279950141906738
1770770168815,,,9.910950660705566,-4.88100004196167
1770770168833,,-1.5480000972747803,,
1770770168834,,,9.031949996948242,-3.8329501152038574
1770770168853,1.6937572183490386,,,
1770770168854,,-1.555050015449524,10.224000930786133,-3.177000045776367
1770770168900,,-1.858950138092041,10.134000778198242,-2.7460501194000244
1770770168901,,,8.9839506149292,
1770770168930,1.7185836711511355,-1.7370001077651978,9.421950340270996,-1.5870001316070557
1770770168968,,-1.2769500017166138,9.544950485229492,-1.5049500465393066
1770770168973,1.1558039036648071,-1.6150500774383545,,-3.5089502334594727
1770770168974,,,9.814950942993164,
1770770169034,,-1.6600500345230103,,
1770770169035,,-1.3090500831604004,,-4.33305025100708
1770770169036,,,9.46095085144043,
1770770169037,1.7731206669719195,,,
1770770169091,,-0.41100001335144043,,
1770770169092,,-0.7939500212669373,8.380949974060059,-4.78095006942749
1770770169105,,-0.5500500202178955,,-3.1549501419067383
1770770169106,,,8.97195053100586,
1770770169116,2.4879639811039773,-1.024049997329712,11.046000480651855,-4.129050254821777
1770770169148,,-1.1599500179290771,,
1770770169149,,,9.954000473022461,-3.38700008392334
1770770169170,,-0.14505000412464142,,
1770770169171,,,8.347050666809082,-3.6720001697540283
1770770169186,1.5774983587725002,,,
1770770169187,,0.5920500159263611,8.247000694274902,-3.438000202178955
1770770169203,,0.7380000352859497,,-3.367950201034546
1770770169204,,,8.292000770568848,
1770770169238,1.2596364036347463,,,
1770770169239,,-0.6550500392913818,9.44895076751709,-4.294950008392334
1770770169299,1.2829701111925325,,,
1770770169301,,0.19395001232624054,,-5.239950180053711
1770770169302,,,9.480000495910645,-4.069950103759766
1770770169331,,-0.7840500473976135,,
1770770169332,,,10.336950302124023,-3.4830002784729004
1770770169366,,-0.9040500521659851,,
1770770169367,,,9.652050018310547,-3.4900500774383545
1770770169380,1.695527093903152,-1.5000001192092896,,-2.8410000801086426
1770770169381,,,9.937050819396973,
1770770169419,,-1.596000075340271,,
1770770169420,,,9.846000671386719,-3.5500502586364746
1770770169441,0.999368378722853,,,
1770770169442,,-0.5929500460624695,8.3899507522583,-3.037950038909912
1770770169477,,-0.44700002670288086,7.4569501876831055,-4.077000141143799
1770770169513,0.8651933854083478,,,
1770770169529,,-1.7830500602722168,9.363000869750977,-1.8190500736236572
1770770169562,0.47895520319447504,-1.1959500312805176,8.304000854492188,-4.351950168609619
1770770169587,,-1.048050045967102,9.169050216674805,-4.072050094604492
1770770169639,,-1.1670000553131104,,-4.2709503173828125
1770770169640,,,,-5.488950252532959
1770770169641,,,7.1170501708984375,
1770770169645,1.7577098223050045,-1.6990500688552856,10.083000183105469,-4.7659502029418945
1770770169696,,-1.5139501094818115,,
1770770169697,,,8.922000885009766,-5.068050384521484
1770770169708,0.3806710780335462,-1.7560501098632812,8.695050239562988,-3.4020001888275146
1770770169741,,-2.4030001163482666,8.96505069732666,-3.5020501613616943
1770770169757,,-2.7210001945495605,9.999000549316406,-2.4750001430511475
1770770169764,0.5654589393441384,,,
1770770169765,,-2.5390501022338867,10.11405086517334,-2.868000030517578
1770770169805,,-2.3140501976013184,9.544950485229492,-2.427000045776367
1770770169826,0.5870032726664514,,,
1770770169827,,-1.1119500398635864,10.255950927734375,-2.6070001125335693
1770770169862,,-0.3460500240325928,7.311000347137451,-3.556950092315674
1770770169907,1.2374213569390036,,,
1770770169908,,-1.3639500141143799,,-3.778050184249878
1770770169909,,,,-5.089950084686279
1770770169910,,,10.330050468444824,
1770770169931,,-0.9949500560760498,,-3.114000082015991
1770770169932,,,8.40195083618164,
1770770169969,2.0050460815841924,,,
1770770169970,,-1.287000060081482,,
1770770169971,,0.13395000994205475,11.359050750732422,-3.9430501461029053
1770770170031,,0.1489500105381012,,
1770770170032,,-0.4729500114917755,,-4.819050312042236
1770770170033,1.0270358592443138,,7.675050258636475,-3.2119500637054443
1770770170090,,-1.15500009059906,,
1770770170091,,-0.8680500388145447,11.08905029296875,-3.7510502338409424
1770770170092,1.8402513834022158,,9.79800033569336,
1770770170108,,-0.016050001606345177,10.390050888061523,-2.880000114440918
1770770170131,,0.0,8.98905086517334,-3.0259501934051514
1770770170169,1.0565719723213405,,,
1770770170171,,-0.6910500526428223,,-4.234950065612793
1770770170172,,,8.119950294494629,-4.089000225067139
1770770170189,,-1.7869501113891602,,
1770770170190,,,9.127950668334961,-3.6150002479553223
1770770170231,1.3286109484084627,-1.6770000457763672,,-2.2740001678466797
1770770170232,,,9.643050193786621,-2.4940500259399414
1770770170300,0.5889868164011901,,,
1770770170301,,-0.7339500188827515,,
1770770170302,,-1.5049500465393066,8.368950843811035,-3.7800002098083496
1770770170317,,-1.2460500001907349,,
1770770170318,,,9.432000160217285,-2.9920501708984375
1770770170335,,-1.858950138092041,8.995950698852539,-3.564000129699707
1770770170352,7.555254531299051,,,
1770770170353,,-2.829000234603882,13.284000396728516,-3.2479500770568848
1770770170377,,-1.2750000953674316,,
1770770170378,,,10.081050872802734,-6.337050437927246
1770770170413,,-1.2199500799179077,,-5.985000133514404
1770770170414,,,7.672050476074219,
1770770170434,0.44713962229322907,,,
1770770170435,,0.325950026512146,,-4.3309502601623535
1770770170436,,,4.0570502281188965,
1770770170465,,-0.6240000128746033,8.244000434875488,-3.3319501876831055
1770770170493,2.201373330538297,,,
1770770170494,,-0.4540500342845917,9.20205020904541,-4.189050197601318
1770770170495,,,7.741950511932373,
1770770170529,,-2.5390501022338867,12.904050827026367,-4.551000118255615
1770770170545,,-0.9900000691413879,9.69795036315918,-4.197000026702881
1770770170561,1.6821705761801724,-1.495050072669983,8.51294994354248,-3.3439502716064453
1770770170577,,-1.9530000686645508,9.154050827026367,-3.355950117111206
1770770170616,3.0681694647029754,-1.7389501333236694,,
1770770170617,,,9.147000312805176,-3.2560501098632812
1770770170647,,-2.6449501514434814,9.729000091552734,-3.100050210952759
1770770170685,,-1.075950026512146,,
1770770170686,,,5.620050430297852,-3.544950246810913
1770770170700,3.580397771123048,,,
1770770170701,,-1.9690500497817993,13.207950592041016,-1.543950080871582
1770770170735,,-0.8700000643730164,,
1770770170736,,,10.177050590515137,-3.7200002670288086
1770770170741,,-2.137050151824951,11.958000183105469,-2.01104998588562
1770770170759,2.6338374918783938,-0.5899500250816345,,
1770770170760,,,6.754950523376465,-5.014950275421143
1770770170798,,-0.35100001096725464,3.633000135421753,-4.0219502449035645
1770770170817,2.4447737517727846,,,
1770770170818,,-2.8219501972198486,11.886000633239746,-3.2530500888824463
1770770170851,,-0.8029500246047974,8.278050422668457,-3.763050079345703
1770770170879,0.9590573409343538,,,
1770770170881,,-0.5899500250816345,,
1770770170882,,,9.25200080871582,-3.7609500885009766
1770770170905,,-0.6690000295639038,,-2.230950117111206
1770770170906,,,8.43600082397461,
1770770170935,,-0.8299500346183777,9.091950416564941,-3.555000066757202
1770770170959,1.7159705837147077,,,
1770770170960,,-0.31005001068115234,9.834000587463379,-2.608950138092041
1770770170961,,,8.9239501953125,
1770770170982,,-0.8460000157356262,9.334050178527832,-3.925950288772583
1770770171019,,-0.6310500502586365,7.897050380706787,-3.3700501918792725
1770770171020,1.22495927937616,,,
1770770171021,,-1.2439500093460083,8.653950691223145,-2.6640000343322754
1770770171056,,-0.934950053691864,8.697000503540039,-2.559000015258789
1770770171073,,-1.9069501161575317,9.997050285339355,-2.0179500579833984
1770770171081,3.0254470494859373,-2.1030001640319824,11.568000793457031,-1.218000054359436
1770770171117,,-2.2900500297546387,7.789050579071045,-4.14900016784668
1770770171124,,-3.1330502033233643,8.6850004196167,-4.192049980163574
1770770171141,1.6949115753740052,,,
1770770171142,,-3.058950185775757,7.32705020904541,-3.1909501552581787
1770770171180,,-2.817000150680542,8.850000381469727,-3.5310001373291016
1770770171184,,-2.2829999923706055,10.390050888061523,-2.7169501781463623
1770770171224,1.5236888189136009,,,
1770770171225,,-3.444000244140625,9.46095085144043,-3.9790501594543457
1770770171226,,,4.912050247192383,
1770770171252,,-2.914950132369995,8.32800006866455,-2.3479502201080322
1770770171284,1.1590112758249242,,,
1770770171285,,-1.1190000772476196,,-4.168050289154053
1770770171286,,,9.57300090789795,-4.891050338745117
1770770171320,,-1.9549500942230225,7.579050540924072,-4.809000015258789
1770770171335,,-2.1780002117156982,8.476950645446777,-3.9979500770568848
1770770171344,1.9286130315340173,,,
1770770171345,,-1.0380001068115234,10.392000198364258,-3.8299500942230225
1770770171387,,-2.2489500045776367,,
1770770171388,,-2.0869500637054443,10.653000831604004,-3.3820502758026123
1770770171389,,,10.696050643920898,
1770770171405,1.9452229674544208,,,
1770770171406,,-2.095950126647949,,
1770770171407,,,10.348950386047363,-3.3730502128601074
1770770171454,,-1.300950050354004,7.201050281524658,-3.5500502586364746
1770770171487,1.628204194410793,,,
1770770171488,,-0.4540500342845917,,
1770770171489,,,8.95305061340332,-3.3030002117156982
1770770171510,,-0.05400000140070915,,-3.547950267791748
1770770171511,,,9.199950218200684,
1770770171537,,0.12495000660419464,,-4.644000053405762
1770770171538,,,9.874950408935547,
1770770171547,1.6650810885229619,-0.5209500193595886,,
1770770171548,,,9.259950637817383,-5.238000392913818
1770770171589,,-0.22200001776218414,1.9789501428604126,-7.1700005531311035
1770770171607,4.958760518283329,-3.315000057220459,,
1770770171608,,,16.825950622558594,-6.2989501953125
1770770171659,,0.6250500082969666,,-6.246000289916992
1770770171660,,,4.930950164794922,
1770770171668,1.9070117866619947,,,
1770770171669,,-1.480950117111206,10.138050079345703,-2.896050214767456
1770770171723,,-0.492000013589859,10.444950103759766,-2.9830501079559326
1770770171730,,-0.8110500574111938,,-3.1690502166748047
1770770171731,,,10.216950416564941,
1770770171749,1.9188589605650468,,,
1770770171750,,-1.636950135231018,9.943950653076172,-2.2950000762939453
1770770171787,,-0.5419500470161438,10.01400089263916,-3.4180500507354736
1770770171789,,-1.2889500856399536,,
1770770171790,,,11.12700080871582,-3.970950126647949
1770770171829,0.6613274968026563,-1.9410001039505005,8.730000495910645,-3.078000068664551
1770770171846,,-1.5430500507354736,6.880050182342529,-3.9210002422332764
1770770171863,,-2.7090001106262207,9.061050415039062,-2.1850500106811523
1770770171870,2.383806665364134,,,
1770770171871,,-1.9380000829696655,10.963950157165527,-1.0459500551223755
1770770171895,,-1.6990500688552856,,
1770770171896,,,9.409950256347656,-3.9880502223968506
1770770171925,,-1.3200000524520874,,
1770770171926,,,,-4.230000019073486
1770770171927,,,6.336000442504883,
1770770171931,1.318114985667172,,,
1770770171932,,-2.239950180053711,,-2.401050090789795
1770770171933,,,9.858000755310059,
1770770171951,,-2.5990500450134277,,-2.31000018119812
1770770171952,,,11.10300064086914,
1770770171992,,-1.6150500774383545,,
1770770171993,,-0.9250500202178955,9.010950088500977,-3.95205020904541
1770770171994,,,8.587050437927246,
1770770172013,3.1056331950858964,,,
1770770172015,,-1.270050048828125,,-3.1930501461029053
1770770172016,,,7.5450005531311035,
1770770172058,,-1.2940500974655151,,
1770770172059,,-1.371000051498413,,-2.9659502506256104
1770770172060,,,8.830950736999512,-3.8400001525878906
1770770172073,1.9560494463312832,,,
1770770172074,,-1.4070000648498535,10.633950233459473,-4.740000247955322
1770770172127,,-2.110949993133545,,-4.207950115203857
1770770172128,,,7.840050220489502,-3.8830502033233643
1770770172134,2.334227787875926,-3.028050184249878,11.40000057220459,-4.402050018310547
1770770172169,,-2.0340001583099365,9.492000579833984,-4.528950214385986
1770770172193,,-1.3830000162124634,4.828050136566162,-4.22504997253418
1770770172194,1.345300976995194,,,
1770770172195,,-2.209050178527832,5.059950351715088,-3.9619503021240234
1770770172227,,-1.609950065612793,10.533000946044922,-3.136050224304199
1770770172261,,-2.107950210571289,,
1770770172262,,,12.444000244140625,-4.033950328826904
1770770172276,0.8671143990713179,-1.593000054359436,,
1770770172277,,,6.6910505294799805,-3.3799500465393066
1770770172328,,-1.711050033569336,,
1770770172329,,,,-3.223950147628784
1770770172331,,,9.469950675964355,
1770770172343,0.5920137568225384,-0.7840500473976135,8.692049980163574,-3.355950117111206
1770770172399,,-0.2070000171661377,,
1770770172400,2.1037741442885456,0.07695000618696213,10.179000854492188,-3.756000280380249
1770770172445,,-0.35295000672340393,10.359000205993652,-3.1840500831604004
1770770172459,2.8372249990960543,,,
1770770172460,,-1.002000093460083,,
1770770172461,,,10.761000633239746,-5.559000492095947
1770770172500,,-1.1770501136779785,10.272000312805176,-2.2980000972747803
1770770172530,,-2.059950113296509,8.922000885009766,-3.7219502925872803
1770770172545,2.5754556419419923,-2.0340001583099365,8.938950538635254,-5.7460503578186035
1770770172598,,-0.40605002641677856,,-3.7099502086639404
1770770172599,,,7.73205041885376,-3.3799500465393066
1770770172600,2.146908413600627,0.7519500255584717,7.840050220489502,-2.2669501304626465
1770770172661,1.15977384385113,-0.23805001378059387,9.765000343322754,-2.458050012588501
1770770172662,,,10.969050407409668,
1770770172723,0.9815453929072269,,,
1770770172724,,-2.4409501552581787,,
1770770172725,,,9.20205020904541,-2.688000202178955
1770770172741,,-0.7429500222206116,9.517950057983398,-2.817000150680542
1770770172776,,-1.1389501094818115,9.049050331115723,-3.6820502281188965
1770770172798,,-1.7779500484466553,,-2.2450501918792725
1770770172799,,,10.213050842285156,
1770770172802,0.8005426563141731,,,
1770770172803,,-2.3740501403808594,8.62695026397705,-2.596950054168701
1770770172830,,-1.8690000772476196,7.737000465393066,-2.800950050354004
1770770172865,1.426998173012797,,,
1770770172866,,-1.3990501165390015,,-2.1229500770568848
1770770172867,,,10.773000717163086,
1770770172893,,-0.8269500136375427,7.002000331878662,-4.465050220489502
1770770172926,1.2245660071473896,,,
1770770172927,,-0.5400000214576721,6.592050075531006,-2.650050163269043
1770770172985,1.3902388904623608,,,
1770770172987,,-1.057050108909607,10.405950546264648,-4.431000232696533
1770770172988,,,8.887950897216797,
1770770173052,,-0.19995000958442688,,
1770770173053,,-0.8610000610351562,10.234050750732422,-3.80400013923645
1770770173054,,,9.937050819396973,
1770770173066,1.827484018488148,,,
1770770173067,,-0.6880500316619873,9.652050018310547,-3.3229501247406006
1770770173109,,0.015000000596046448,,
1770770173110,,-0.13500000536441803,9.877050399780273,-3.057000160217285
1770770173127,2.049210242756598,0.08895000070333481,,
1770770173128,,,7.405950546264648,-3.7320001125335693
1770770173162,,-0.10395000129938126,7.464000225067139,-2.8939502239227295
1770770173187,1.4524172628347025,-1.4740500450134277,,
1770770173188,,,9.760050773620605,-2.350950002670288
1770770173214,,-0.76500004529953,6.765000343322754,-4.612950325012207
1770770173249,1.327515585712672,-0.7870500087738037,,
1770770173250,,-1.765950083732605,,-3.019050121307373
1770770173251,,,7.804050445556641,-1.990950107574463
1770770173268,,-2.700000047683716,9.268950462341309,-4.63200044631958
1770770173327,,-2.0340001583099365,,
1770770173328,,,8.28795051574707,-2.7460501194000244
1770770173330,0.9184806532714557,,,
1770770173331,,-1.804050087928772,9.130050659179688,-2.8320000171661377
1770770173380,,-1.0690500736236572,9.56100082397461,-2.3959500789642334
1770770173392,0.5401688983596107,-1.5739500522613525,8.869050025939941,-2.7739500999450684
1770770173435,,-2.7139501571655273,9.595050811767578,-3.0450000762939453
1770770173451,1.1299722252023272,-2.5660500526428223,,-2.6860501766204834
1770770173452,,,9.955950736999512,
1770770173474,,-2.2900500297546387,9.612000465393066,-3.2479500770568848
1770770173491,,-1.540950059890747,8.896050453186035,-3.2599501609802246
1770770173516,0.85743574335444,-1.4620500802993774,,
1770770173517,,,9.484950065612793,-3.2989501953125
1770770173538,,-1.1239500045776367,10.045050621032715,-3.5520002841949463
1770770173592,0.31047027170915137,,,
1770770173594,,-0.781950056552887,,-3.9019501209259033
1770770173595,,,7.933050155639648,-3.397050142288208
1770770173659,1.4692836360200068,,,
1770770173660,,-0.21405000984668732,,
1770770173661,,,10.21500015258789,-3.1810500621795654
1770770173677,,-0.8269500136375427,8.236949920654297,-2.86995005607605
1770770173727,1.6200670782966184,-1.9260001182556152,12.552000999450684,-2.2139999866485596
1770770173743,,-0.973050057888031,8.26395034790039,-3.28695011138916
1770770173767,,-1.3609501123428345,,
1770770173768,,,6.748050212860107,-3.397050142288208
1770770173774,0.2029332392861789,-2.07705020904541,,
1770770173775,,,10.191000938415527,-2.01104998588562
1770770173806,,-1.6530001163482666,,
1770770173807,,,8.155950546264648,-2.638050079345703
1770770173822,,-2.2639501094818115,,
1770770173823,,,9.874950408935547,-1.864050030708313
1770770173856,3.6461077486942006,,,
1770770173858,,-2.020050048828125,11.66100025177002,-2.2240500450134277
1770770173876,,-0.8250000476837158,11.37600040435791,-3.4300501346588135
1770770173916,0.7898300139518493,,,
1770770173918,,-0.6840000152587891,,
1770770173919,,,7.492950439453125,-4.741950035095215
1770770173945,,-0.9010500311851501,7.801050186157227,-3.828000068664551
1770770173979,0.8316284780838121,-1.7040001153945923,,
1770770173980,,-1.3090500831604004,8.824049949645996,-3.9619503021240234
1770770174009,,-1.7040001153945923,,-3.948000192642212
1770770174010,,,10.464000701904297,
1770770174041,1.6022356805017177,,,
1770770174042,,-1.555050015449524,7.900050163269043,-3.586050271987915
1770770174043,,,7.950000286102295,
1770770174076,,-1.612950086593628,,
1770770174077,,,10.01400089263916,-2.797950029373169
1770770174100,,-0.29100000858306885,,-3.06600022315979
1770770174101,,,6.228000164031982,
1770770174121,1.6325275957424412,-0.19995000958442688,,
1770770174122,,,9.69105052947998,-1.8739501237869263
1770770174143,,-0.8989500403404236,8.155950546264648,-3.1330502033233643
1770770174187,0.5094236783598097,,,
1770770174188,,-1.1980500221252441,9.205050468444824,-2.02305006980896
1770770174189,,,8.635050773620605,
1770770174223,,-1.1190000772476196,7.737000465393066,-2.8150501251220703
1770770174240,1.807806449227193,,,
1770770174241,,-1.9260001182556152,13.150050163269043,-4.13700008392334
1770770174260,,-1.0069500207901,6.408000469207764,-2.9419500827789307
1770770174301,1.7458642044918966,-1.0909500122070312,,
1770770174302,,-1.858950138092041,7.926000595092773,-1.6660500764846802
1770770174345,,-1.2220500707626343,,
1770770174346,,-1.2370500564575195,11.007000923156738,-2.6620500087738037
1770770174370,,-1.2300000190734863,,
1770770174371,,,9.612000465393066,-3.186000108718872
1770770174382,0.8303846444059841,-0.4710000157356262,,
1770770174383,,,7.830000400543213,-3.0900001525878906
1770770174411,,-0.9040500521659851,8.38800048828125,-3.1120500564575195
1770770174424,,-0.7200000286102295,9.67905044555664,-2.797950029373169
1770770174443,0.7046911810463724,-0.41505002975463867,9.415050506591797,-3.226950168609619
1770770174479,,-0.19005000591278076,9.370050430297852,-2.7240002155303955
1770770174508,0.8054542221993984,-0.527999997138977,8.479050636291504,-3.3510000705718994
1770770174535,,-0.9420000314712524,9.018000602722168,-4.120050430297852
1770770174548,,-0.4900500178337097,,
1770770174549,,,9.541950225830078,-3.7009501457214355
1770770174564,1.931218887127865,,,
1770770174566,,-0.597000002861023,6.499050140380859,-4.315950393676758
1770770174589,,-0.934950053691864,,
1770770174590,,,10.717950820922852,-3.28695011138916
1770770174613,,-0.6409500241279602,,
1770770174614,,,8.26395034790039,-4.551000118255615
1770770174644,0.5572069733576304,,,
1770770174645,,-0.8730000257492065,8.3899507522583,-4.108050346374512
1770770174681,,-1.3180500268936157,,
1770770174682,,,9.858000755310059,-2.0179500579833984
1770770174700,,-1.6030501127243042,11.769001007080078,-2.1660001277923584
1770770174715,1.8230060737119471,,,
1770770174716,,-1.0980000495910645,10.801950454711914,-3.1690502166748047
1770770174745,,-1.2580500841140747,7.9710001945495605,-3.8680500984191895
1770770174746,,,8.67300033569336,
1770770174768,0.7861888415349955,-1.4830501079559326,8.632050514221191,-3.0979502201080322
1770770174811,,-0.9330000281333923,,
1770770174812,,-0.5260500311851501,9.979950904846191,-3.4140002727508545
1770770174828,1.3543530360378624,,,
1770770174829,,-1.0909500122070312,9.322050094604492,-3.3510000705718994
1770770174865,,0.028950002044439316,7.869000434875488,-3.8400001525878906
1770770174882,,-0.8490000367164612,,-3.733950138092041
1770770174883,,,8.754000663757324,
1770770174909,1.2999700817920319,-0.6450000405311584,8.3860502243042,-3.367950201034546
1770770174946,,-0.9799500703811646,,-3.0640501976013184
1770770174947,,,9.097050666809082,
1770770174949,,-1.3680000305175781,,-2.3959500789642334
1770770174950,,,9.123000144958496,
1770770174969,0.7891436242429052,,,
1770770174970,,-1.0950000286102295,9.015000343322754,-2.868000030517578
1770770175021,,-1.210050106048584,,
1770770175022,,,11.047950744628906,-2.319000005722046
1770770175035,1.9579662290043485,-1.7299500703811646,10.569000244140625,-2.1540000438690186
1770770175087,,-2.149049997329712,11.544000625610352,-2.257050037384033
1770770175088,,,7.6050004959106445,
1770770175092,0.8774884805167736,-2.0680501461029053,10.785000801086426,-2.4559500217437744
1770770175140,,-2.110949993133545,,
1770770175141,,-2.266050100326538,7.135950565338135,-3.385050058364868
1770770175152,,-2.0680501461029053,9.738000869750977,-3.0259501934051514
1770770175172,0.666069565543583,-2.0820000171661377,,
1770770175173,,,9.44895076751709,-2.7550501823425293
1770770175194,,-2.0220000743865967,,
1770770175195,,,9.664050102233887,-3.5689501762390137
1770770175219,,-1.8259501457214355,,-3.664950132369995
1770770175220,,,9.865050315856934,
1770770175232,1.9057741665659642,,,
1770770175233,,-2.202000141143799,11.011950492858887,-2.539950132369995
1770770175287,,-1.88100004196167,,-3.627000093460083
1770770175288,,,8.974950790405273,-2.9659502506256104
1770770175299,1.6964005173966388,,,
1770770175300,,-1.0600500106811523,7.758000373840332,-3.4300501346588135
1770770175348,,-1.7130000591278076,10.657950401306152,-2.5660500526428223
1770770175355,0.724576142158236,,,
1770770175356,,-1.2990000247955322,8.413949966430664,-3.5020501613616943
1770770175415,,-1.6920000314712524,,
1770770175416,,-0.7030500173568726,,-3.2530500888824463
1770770175417,,,10.438050270080566,
1770770175445,1.0425144306162926,,,
1770770175446,,-1.01895010471344,8.119950294494629,-3.517050266265869
1770770175471,,-1.5979501008987427,10.119000434875488,-3.20805025100708
1770770175487,,-1.2199500799179077,8.95305061340332,-3.5329501628875732
1770770175499,0.7429190393418189,-1.4689500331878662,9.856050491333008,-3.0949501991271973
1770770175533,,-0.9709500670433044,,
1770770175534,,,8.665950775146484,-3.526050090789795
1770770175550,,-0.8250000476837158,9.303000450134277,-3.268050193786621
1770770175556,0.5972664503113039,-1.6440000534057617,8.94795036315918,-2.6929500102996826
1770770175579,,-1.0999500751495361,10.789950370788574,-2.530050039291382
1770770175618,0.780017376302693,,,
1770770175619,,-0.5689499974250793,,-3.4930500984191895
1770770175620,,,8.553000450134277,-2.7550501823425293
1770770175692,,-1.9650001525878906,,-3.994950294494629
1770770175693,,,9.616050720214844,-3.2410502433776855
1770770175698,1.0751922635096698,,,
1770770175699,,-2.2230000495910645,7.411050319671631,-3.514050245285034
1770770175745,,-1.6600500345230103,9.873000144958496,-2.0899500846862793
1770770175746,,,9.760050773620605,
1770770175760,2.1453684577951053,,,
1770770175761,,-2.199000120162964,11.031000137329102,-2.959050178527832
1770770175800,,-1.0429500341415405,8.158050537109375,-2.7840001583099365
1770770175820,0.9607209682738651,,,
1770770175821,,-1.1190000772476196,8.66100025177002,-3.246000051498413
1770770175855,,-1.1100000143051147,9.556050300598145,-3.6510002613067627
1770770175881,1.1820514563770357,,,
1770770175883,,-1.9069501161575317,,-3.427950143814087
1770770175884,,,11.805000305175781,
1770770175913,,-0.10695000737905502,,
1770770175914,,,8.469000816345215,-3.6720001697540283
1770770175950,,-0.4630500078201294,,-3.9589502811431885
1770770175951,,,8.37405014038086,-2.5129501819610596
1770770175963,0.27541057703775845,-0.7480500340461731,,-3.5020501613616943
1770770175964,,,8.821050643920898,
1770770176019,,-0.49695003032684326,8.781000137329102,-2.5470001697540283
1770770176022,1.4981245396262852,-1.1959500312805176,9.601950645446777,-1.6939500570297241
1770770176075,,-2.4120001792907715,,
1770770176076,,-1.3920000791549683,13.732050895690918,-2.5830001831054688
1770770176087,0.7995076169264855,-1.5580500364303589,11.047950744628906,-3.586050271987915
1770770176129,,-0.8320500254631042,7.240950107574463,-3.280050039291382
1770770176144,1.218584391761843,-0.9300000667572021,8.09595012664795,-4.252050399780273
1770770176188,,-0.6210000514984131,,
1770770176189,,-0.46095001697540283,9.6739501953125,-3.6480002403259277
1770770176231,1.3304877413672735,,,
1770770176232,,0.3450000286102295,8.71095085144043,-3.145050048828125
1770770176287,0.9094300217385569,,,
1770770176288,,0.5680500268936157,,
1770770176289,,-0.4729500114917755,9.136950492858887,-3.1999502182006836
1770770176290,,,10.306050300598145,
1770770176348,1.1147262564793476,,,
1770770176349,,-0.3840000033378601,10.591050148010254,-2.9539501667022705
1770770176350,,,9.717000007629395,
1770770176409,,-0.4440000355243683,,
1770770176410,1.5366234211135854,,8.278050422668457,-4.1579999923706055
1770770176428,,0.09600000083446503,,
1770770176429,,,11.311050415039062,-2.197050094604492
1770770176460,,0.18000000715255737,,-3.3439502716064453
1770770176461,,,9.070050239562988,
1770770176489,0.7926276464582034,,,
1770770176490,,-0.3079500198364258,,
1770770176491,,-0.8299500346183777,8.94105052947998,-3.198000192642212
1770770176515,,-1.423050045967102,,-3.415950059890747
1770770176516,,,8.218050003051758,
1770770176551,0.7060199481020862,,,
1770770176552,,-1.426050066947937,8.910000801086426,-2.9320502281188965
1770770176553,,,8.656050682067871,
1770770176571,,-1.27305006980896,8.299050331115723,-3.5050501823425293
1770770176625,1.069308011461122,-1.4209500551223755,,
1770770176626,,,7.768050193786621,-3.948000192642212
1770770176630,,-1.5649501085281372,11.484000205993652,-1.062000036239624
1770770176671,2.5141083309531567,,,
1770770176672,,-1.636950135231018,,
1770770176673,,,8.707050323486328,-2.6550002098083496
1770770176699,,-2.1700501441955566,,
1770770176700,,,9.44895076751709,-2.190000057220459
1770770176741,,-2.9629502296447754,,-2.9629502296447754
1770770176742,,,9.298050880432129,-3.3010501861572266
1770770176751,1.7959300998304952,,,
1770770176752,,-2.2210500240325928,,-2.1690001487731934
1770770176753,,,8.484000205993652,
1770770176792,,-2.127000093460083,,-2.8369500637054443
1770770176793,,,8.826000213623047,
1770770176812,1.5843384296477863,,,
1770770176813,,-2.5200002193450928,7.573950290679932,-3.1840500831604004
1770770176832,,-2.2489500045776367,,-4.07895040512085
1770770176833,,,7.354050159454346,
1770770176879,0.7797353175604205,-2.8219501972198486,10.09005069732666,-4.048050403594971
1770770176898,,-1.6939500570297241,10.576050758361816,-3.2820000648498535
1770770176935,1.232276291266276,,,
1770770176936,,-1.665000081062317,,-3.38700008392334
1770770176937,,,7.882950305938721,-2.0659501552581787
1770770176956,,-0.8730000257492065,,-3.4519500732421875
1770770176957,,,9.643050193786621,
1770770177010,,-0.0010500000789761543,,
1770770177011,,0.040950000286102295,,-2.3839499950408936
1770770177012,,,9.904050827026367,
1770770177019,0.6819580563207311,,,
1770770177020,,-1.0039499998092651,9.844050407409668,-2.319000005722046
1770770177038,,-1.7850000858306885,9.445950508117676,-3.016050100326538
1770770177065,,-1.6960500478744507,9.319050788879395,-3.397050142288208
1770770177075,0.6868454895414049,,,
1770770177076,,-1.2649500370025635,9.858000755310059,-3.2890501022338867
1770770177111,,-2.1439499855041504,10.05405044555664,-2.817000150680542
1770770177119,,-1.6920000314712524,8.244000434875488,-3.733950138092041
1770770177136,0.7763719474598578,,,
1770770177137,,-1.689000129699707,8.434050559997559,-3.390000104904175
1770770177169,,-2.07705020904541,9.457950592041016,-3.5719501972198486
1770770177177,,-1.5259500741958618,9.5110502243042,-4.105950355529785
1770770177197,1.0016686108063055,,,
1770770177198,,-0.909000039100647,8.407050132751465,-3.397050142288208
1770770177231,,-0.3840000033378601,9.664050102233887,-3.3610501289367676
1770770177279,0.7198154596425387,,,
1770770177281,,-0.09195000678300858,,-4.1010003089904785
1770770177282,,,8.138999938964844,
1770770177302,,-0.3820500075817108,,
1770770177303,,,10.29900074005127,-2.5320000648498535
1770770177339,1.4003575958230094,,,
1770770177340,,-0.19500000774860382,,
1770770177341,,,9.808050155639648,-2.7360000610351562
1770770177373,,0.3949500322341919,,-2.5159502029418945
1770770177374,,,9.187950134277344,
1770770177395,,-0.3340500295162201,9.295950889587402,-3.3199501037597656
1770770177399,0.23560092900464213,,,
1770770177400,,-1.0980000495910645,9.331050872802734,-2.959050178527832
1770770177437,,-1.2529500722885132,9.427050590515137,-2.9040000438690186
1770770177450,,-1.2750000953674316,9.7339506149292,-3.217050075531006
1770770177460,0.552756480930797,-0.15405000746250153,7.6870503425598145,-3.9210002422332764
1770770177504,,-0.6210000514984131,,
1770770177505,,,10.123950004577637,-3.2530500888824463
1770770177543,0.4273345332572702,,,
1770770177544,,-0.4710000157356262,,
1770770177545,,-0.8340000510215759,7.042050361633301,-4.361999988555908
1770770177560,,-0.8800500631332397,,-3.454050064086914
1770770177561,,,8.884050369262695,
1770770177603,1.1602643922695235,,,
1770770177604,,-0.625950038433075,,-3.624000072479248
1770770177605,,,8.299050331115723,
1770770177639,,-0.6550500392913818,,
1770770177640,,,8.93595027923584,-3.2320501804351807
1770770177664,0.4108332541635268,-1.3200000524520874,8.934000015258789,-2.7580502033233643
1770770177707,,-1.384950041770935,,-2.6329500675201416
1770770177708,,,8.85300064086914,
1770770177724,0.5391442886446959,-0.7720500230789185,,
1770770177725,,,9.655050277709961,-2.977950096130371
1770770177758,,-0.6049500107765198,9.553950309753418,-2.9950501918792725
1770770177778,,-0.44895002245903015,10.324950218200684,-2.599950075149536
1770770177806,2.3068790684005016,,,
1770770177807,,0.14400000870227814,,
1770770177808,,0.040950000286102295,10.36305046081543,-2.668950080871582
1770770177835,,-4.870950222015381,7.107000350952148,-6.885000228881836
1770770177866,,-2.050950050354004,,
1770770177867,,-0.5419500470161438,10.62405014038086,-0.9709500670433044
1770770177868,,,11.838000297546387,
1770770177869,2.5488081072609527,,,
1770770177902,,-0.30105000734329224,9.772050857543945,-3.2719502449035645
1770770177919,,-2.4870002269744873,10.296000480651855,-3.81600022315979
1770770177927,2.8876327285976924,-2.2950000762939453,6.967950344085693,-4.194000244140625
1770770177945,,-1.5670500993728638,9.577950477600098,-3.0859501361846924
1770770177973,,-0.5400000214576721,8.175000190734863,-3.4399502277374268
1770770177987,1.6305864848175347,,,
1770770177990,,-1.1670000553131104,8.68005084991455,-4.387950420379639
1770770178043,,-1.1860500574111938,,-4.153050422668457
1770770178044,,,8.131950378417969,-3.7200002670288086
1770770178055,,-2.299950122833252,9.07800006866455,-4.443000316619873
1770770178068,2.4930118166157262,,,
1770770178069,,-1.5340501070022583,7.890000343322754,-4.539000034332275
1770770178108,,-0.7890000343322754,,
1770770178109,,-0.6930000185966492,10.368000030517578,-3.703050136566162
1770770178129,1.7999401320991861,,,
1770770178130,,-1.8400501012802124,10.770000457763672,-3.397050142288208
1770770178167,,-1.38795006275177,,
1770770178168,,,8.188950538635254,-3.514050245285034
1770770178183,,-2.11995005607605,10.074000358581543,-3.6150002479553223
1770770178200,1.5717519359306693,-1.5139501094818115,6.901050090789795,-5.025000095367432
1770770178220,,-1.0309500694274902,,-4.73805046081543
1770770178221,,,7.930950164794922,
1770770178243,,-1.6920000314712524,,
1770770178244,,,11.098050117492676,-3.4729502201080322
1770770178250,0.9675840313715381,-1.3320000171661377,,-2.8630502223968506
1770770178251,,,11.587050437927246,
1770770178275,,-2.1010501384735107,10.509000778198242,-2.860950231552124
1770770178312,,-1.8930001258850098,,
1770770178313,,,9.003000259399414,-4.840950012207031
1770770178342,0.573403642782689,,,
1770770178343,,-1.5889500379562378,8.260950088500977,-3.948000192642212
1770770178361,,-0.4630500078201294,8.824049949645996,-3.8520002365112305
1770770178377,,-0.5659500360488892,,
1770770178378,,,8.94795036315918,-3.6510002613067627
1770770178393,1.6653667228233626,,,
1770770178394,,0.15300001204013824,7.464000225067139,-3.9760501384735107
1770770178442,,-0.006000000052154064,,-3.4420502185821533
1770770178443,,,9.885000228881836,-4.572000026702881
1770770178461,1.1698297072645738,0.5509500503540039,9.385950088500977,-3.7890002727508545
1770770178496,,0.42900002002716064,8.716050148010254,-3.607950210571289
1770770178513,0.9060622053580717,,,
1770770178514,,0.24705001711845398,8.764050483703613,-3.415950059890747
1770770178549,,-1.0639500617980957,,
1770770178550,,,10.909050941467285,-2.9610002040863037
1770770178556,,-0.8970000147819519,8.782950401306152,-2.974950075149536
1770770178579,,-1.1050500869750977,,-3.1840500831604004
1770770178580,,,10.018950462341309,
1770770178595,1.7574107071181888,-1.8450000286102295,,-3.0300002098083496
1770770178596,,,9.829050064086914,
1770770178647,,-2.2139999866485596,10.52595043182373,-3.4020001888275146
1770770178657,0.6114721402803275,-1.9530000686645508,,-3.865950107574463
1770770178658,,,9.255000114440918,
1770770178714,,-2.3430001735687256,,
1770770178715,,,8.194050788879395,-3.579000234603882
1770770178716,0.5707486979770053,-2.5060501098632812,,
1770770178757,,-1.3920000791549683,7.071000099182129,-4.359000205993652
1770770178776,1.6183805625904197,,,
1770770178777,,-0.8940000534057617,8.320950508117676,-4.764000415802002
1770770178828,,-0.8059500455856323,,-3.2820000648498535
1770770178829,,,10.006950378417969,-5.386050224304199
1770770178848,,-0.7219500541687012,,-0.6000000238418579
1770770178849,,,11.910000801086426,
1770770178857,2.0232469623655525,,,
1770770178858,,-0.9570000171661377,10.098000526428223,-1.5559500455856323
1770770178879,,-1.7440500259399414,10.402050018310547,-2.0299501419067383
1770770178916,,-1.6290000677108765,,
1770770178918,,,,-2.8630502223968506
1770770178919,1.0753178747520054,,10.39905071258545,-3.117000102996826
1770770178920,,-1.8660000562667847,,
1770770178962,,-2.158050060272217,,
1770770178963,,,10.84695053100586,-2.427000045776367
1770770178981,0.9739723952531139,,,
1770770178982,,-1.90500009059906,9.283950805664062,-3.6000001430511475
1770770179041,0.16041290838206984,,,
1770770179043,,-1.725000023841858,,-3.367950201034546
1770770179044,,,9.726000785827637,-2.748000144958496
1770770179102,,-1.2649500370025635,,
1770770179103,,-2.1750001907348633,7.915950298309326,-3.985950231552124
1770770179104,,,9.766950607299805,
1770770179121,0.3871588851416579,,,
1770770179122,,-2.3430001735687256,8.440950393676758,-3.385050058364868
1770770179155,,-2.8789501190185547,9.670950889587402,-3.9790501594543457
1770770179185,1.146459056048287,,,
1770770179186,,-2.407050132751465,9.055950164794922,-3.604950189590454
1770770179221,,-2.3479502201080322,9.085050582885742,-3.457050085067749
1770770179243,0.5062631887907865,,,
1770770179244,,-1.977000117301941,8.756999969482422,-2.0970001220703125
1770770179265,,-0.9040500521659851,8.296950340270996,-2.4970500469207764
1770770179304,1.2797433321630631,,,
1770770179305,,-0.9640500545501709,8.447999954223633,-2.748000144958496
1770770179306,,,9.121050834655762,
1770770179363,,-0.0799500048160553,,
1770770179364,,-0.7549500465393066,10.21500015258789,-3.4830002784729004
1770770179376,,-0.4510500133037567,,-3.9019501209259033
1770770179377,,,8.817000389099121,
1770770179384,0.990416229824622,,,
1770770179385,,-1.0549499988555908,9.407999992370605,-5.086950302124023
1770770179430,,-1.210050106048584,,
1770770179431,,-1.4160000085830688,9.391050338745117,-4.479000091552734
1770770179445,1.2214606048252292,,,
1770770179446,,-0.906000018119812,10.260000228881836,-3.847050189971924
1770770179486,,-0.1469999998807907,,-3.4450502395629883
1770770179487,,,9.195000648498535,-2.829000234603882
1770770179517,0.6514533356256396,-0.8749500513076782,9.334050178527832,-2.722050189971924
1770770179541,,-0.6169500350952148,,-3.0420000553131104
1770770179542,,,7.9830002784729,
1770770179569,2.252001931421729,-0.492000013589859,8.431050300598145,-2.559000015258789
1770770179587,,-1.1860500574111938,9.657000541687012,-1.6350001096725464
1770770179654,0.1580931316460911,,,
1770770179655,,-1.9140000343322754,,-2.070000171661377
1770770179656,,,9.564000129699707,-2.307000160217285
1770770179706,,-2.296950101852417,,
1770770179707,,-2.0629501342773438,10.248000144958496,-2.67900013923645
1770770179709,,-1.6939500570297241,,-3.283950090408325
1770770179710,0.708700033710684,,8.410050392150879,
1770770179760,,-1.7560501098632812,9.223950386047363,-3.2340002059936523
1770770179779,0.21148100345433846,-1.651050090789795,8.766000747680664,-3.1810500621795654
1770770179798,,-2.0239500999450684,9.808050155639648,-2.8440001010894775
1770770179814,,-1.9720500707626343,9.042000770568848,-2.949000120162964
1770770179831,0.44778086207794526,-1.8469500541687012,9.664050102233887,-2.6040000915527344
1770770179857,,-1.4500501155853271,9.753000259399414,-2.5729501247406006
1770770179872,,-1.6819500923156738,,
1770770179873,,,10.545000076293945,-2.628000020980835
1770770179917,0.35044792242660283,-1.3990501165390015,,
1770770179918,,-1.6920000314712524,8.758950233459473,-3.44700026512146
1770770179961,,-1.3470001220703125,,
1770770179962,,-1.7010000944137573,9.729000091552734,-3.265050172805786
1770770179963,,,9.822000503540039,
1770770179976,0.62222707261407,-1.9290001392364502,8.6850004196167,-3.2599501609802246
1770770180033,0.5339149781614162,-2.0940001010894775,,
1770770180034,,-2.1780002117156982,9.300000190734863,-3.5119502544403076
1770770180035,,,9.532950401306152,
1770770180057,,-1.9480501413345337,,
1770770180058,,,9.360000610351562,-3.217050075531006
1770770180090,,-1.828050136566162,,
1770770180091,,,8.758950233459473,-3.1050002574920654
1770770180095,0.532039588493172,-1.4110500812530518,,
1770770180096,,,9.010950088500977,-3.3130502700805664
1770770180126,,-1.3470001220703125,,-3.4180500507354736
1770770180127,,,8.28795051574707,
1770770180145,,-1.7950501441955566,9.111000061035156,-3.268050193786621
1770770180162,,-1.5720000267028809,9.24000072479248,-3.1810500621795654
1770770180173,0.986082654566292,,,
1770770180174,,-1.636950135231018,9.873000144958496,-3.406050205230713
1770770180200,,-1.609950065612793,8.437950134277344,-3.306000232696533
1770770180236,0.4516235831634655,-2.0749499797821045,,-2.5879502296447754
1770770180237,,,10.485000610351562,
1770770180267,,-1.5240000486373901,,
1770770180268,,,8.35200023651123,-3.2410502433776855
1770770180304,0.6666537273661276,,,
1770770180306,,-1.4880000352859497,9.468000411987305,-2.63100004196167
1770770180327,,-0.6960000395774841,8.920050621032715,-2.311950206756592
1770770180357,0.6352778554121351,-1.117050051689148,,-2.1610500812530518
1770770180358,,,9.930000305175781,
1770770180401,,-1.609950065612793,,
1770770180402,,,9.025050163269043,-2.299950122833252
1770770180419,,-1.5720000267028809,10.59795093536377,-2.137050151824951
1770770180437,1.6670223651248401,,,
1770770180438,,-1.6750500202178955,10.051950454711914,-0.89205002784729
1770770180461,,-1.5739500522613525,,-2.058000087738037
1770770180462,,,10.11405086517334,
1770770180499,1.7962776849852384,,,
1770770180500,,-1.4830501079559326,,-3.220050096511841
1770770180501,,,7.963950157165527,-2.76705002784729
1770770180543,,0.036000002175569534,,
1770770180544,,,9.019950866699219,-2.8560001850128174
1770770180574,2.9981292613883683,,,
1770770180575,,0.24195000529289246,9.316950798034668,-2.4750001430511475
1770770180589,,2.6100001335144043,9.742950439453125,-4.941000461578369
1770770180621,2.5579727001508044,2.004000186920166,,
1770770180622,,0.6469500064849854,8.082000732421875,-3.598050117492676
1770770180639,,-1.6410000324249268,,-1.0960500240325928
1770770180640,,,13.713000297546387,
1770770180664,,-2.1750001907348633,,-1.0380001068115234
1770770180665,,,10.51200008392334,
1770770180696,,-2.2930500507354736,,-0.2460000067949295
1770770180697,,,10.681950569152832,
1770770180701,1.7727581857329013,-2.3550000190734863,8.529000282287598,-0.6960000395774841
1770770180730,,-2.533950090408325,10.284000396728516,-1.2280501127243042
1770770180750,,-1.1839500665664673,,
1770770180751,,,11.194050788879395,-2.2360501289367676
1770770180779,1.6185437104147646,1.3150500059127808,9.456000328063965,-0.5620500445365906
1770770180797,,2.1859500408172607,11.031000137329102,0.07200000435113907
1770770180815,,1.9519500732421875,10.246050834655762,-0.3439500033855438
1770770180830,1.3134088548417842,,,
1770770180831,,0.5800500512123108,10.629000663757324,-0.09300000220537186
1770770180864,,0.5560500025749207,,
1770770180865,,,10.545000076293945,-0.9949500560760498
1770770180884,1.8586208833796003,,,
1770770180885,,-1.366050124168396,10.543050765991211,-2.470050096511841
1770770180915,,-2.6110501289367676,8.994000434875488,-1.9030500650405884
1770770180930,,-3.207000255584717,,
1770770180931,,,8.668050765991211,-1.9290001392364502
1770770180967,1.907412502836865,,,
1770770180968,,-2.1559500694274902,,
1770770180969,,-0.45600003004074097,10.344000816345215,-0.2560500204563141
1770770180998,,0.7690500617027283,,0.24900001287460327
1770770180999,,,10.723050117492676,
1770770181025,2.0681638688290827,,,
1770770181027,,1.7700001001358032,,0.1579500138759613
1770770181028,,,7.9360504150390625,
1770770181074,,4.0920000076293945,,
1770770181075,,,11.505000114440918,0.7969500422477722
1770770181089,2.7062272808715906,3.4099502563476562,11.890950202941895,-0.9709500670433044
1770770181132,,3.5340001583099365,,
1770770181133,,,11.362051010131836,-0.46095001697540283
1770770181147,2.9501448838167685,,,
1770770181148,,4.341000080108643,9.103950500488281,-1.6939500570297241
1770770181189,,4.465950012207031,,-3.7009501457214355
1770770181190,,,10.050000190734863,
1770770181230,3.6938434931094353,,,
1770770181232,,3.2920501232147217,8.029050827026367,-3.6120002269744873
1770770181233,,,6.958950519561768,
1770770181268,,-0.9799500703811646,,-3.805950164794922
1770770181269,,,6.027000427246094,
1770770181288,2.725004871609034,,,
1770770181289,,-1.7730001211166382,,
1770770181290,,-0.8700000643730164,,-3.90405011177063
1770770181291,,,8.548050880432129,
1770770181335,,-1.3759500980377197,,
1770770181336,,-1.1190000772476196,8.890950202941895,-3.696000099182129
1770770181337,,,8.905050277709961,
1770770181366,0.5906936383605013,-0.5140500068664551,8.97195053100586,-2.8440001010894775
1770770181403,,0.3430500030517578,,-2.8939502239227295
1770770181404,,,9.109050750732422,
1770770181409,1.0365733110049813,,,
1770770181410,,1.4820001125335693,,
1770770181411,,,9.69105052947998,-2.8630502223968506
1770770181465,,1.6639500856399536,,
1770770181466,,,10.09005069732666,-2.3310000896453857
1770770181467,,,9.760050773620605,
1770770181493,1.2177254209252253,,,
1770770181494,,1.9729501008987427,,-2.5009500980377197
1770770181495,,,9.394050598144531,-3.106950044631958
1770770181520,,3.4429502487182617,,
1770770181521,,,9.193050384521484,-2.877000093460083
1770770181535,,3.589050054550171,,-3.076050043106079
1770770181536,,,9.136950492858887,
1770770181552,1.5447470931423857,3.4620001316070557,,-3.217050075531006
1770770181553,,,8.836050033569336,
1770770181576,,3.5250000953674316,8.884050369262695,-2.9320502281188965
1770770181603,,3.5650501251220703,9.47700023651123,-2.82705020904541
1770770181612,1.1794316601750414,,,
1770770181613,,3.229950189590454,9.592050552368164,-2.518050193786621
1770770181669,,2.8969502449035645,9.556050300598145,-2.5729501247406006
1770770181673,0.37240805528053855,2.0500500202178955,9.469950675964355,-2.7460501194000244
1770770181739,,2.044950008392334,,
1770770181740,,1.7050501108169556,9.247950553894043,-2.899050235748291
1770770181741,,,9.172950744628906,
1770770181755,0.40879238982106364,,,
1770770181756,,1.360050082206726,9.195000648498535,-3.277050256729126
1770770181795,,1.363050103187561,,
1770770181796,,,9.087000846862793,-3.307950258255005
1770770181816,0.1879912537178755,1.6330500841140747,9.082050323486328,-3.0300002098083496
1770770181850,,1.5730500221252441,,
1770770181851,,,9.183000564575195,-3.1120500564575195
1770770181871,,1.7530500888824463,,
1770770181872,,,9.394050598144531,-3.3109500408172607
1770770181882,0.3167195005742021,,,
1770770181883,,1.966050148010254,9.298050880432129,-3.2629501819610596
1770770181910,,1.8049501180648804,,
1770770181911,,,9.340950012207031,-3.258000135421753
1770770181937,0.5978733740450893,,,
1770770181938,,1.4800500869750977,,
1770770181939,,,9.580050468444824,-3.358950138092041
1770770181959,,2.16195011138916,,
1770770181960,,,9.219000816345215,-3.7009501457214355
1770770182012,,1.963050127029419,8.97195053100586,-3.7579500675201416
1770770182017,0.3881576049550087,,,
1770770182018,,1.9489500522613525,9.042000770568848,-3.684000253677368
1770770182076,,1.699950098991394,9.324000358581543,-3.643050193786621
1770770182077,,,9.031949996948242,
1770770182079,,1.6639500856399536,,
1770770182080,0.35599445413170144,,9.111000061035156,-3.2509500980377197
1770770182130,,1.4010000228881836,9.288000106811523,-3.3919501304626465
1770770182131,,,9.312000274658203,
1770770182139,0.8172025310818859,,,
1770770182140,,0.7969500422477722,9.106050491333008,-3.076050043106079
1770770182167,,0.4930500090122223,,-2.908050060272217
1770770182168,,,8.905050277709961,
1770770182180,,0.25394999980926514,9.43695068359375,-3.1690502166748047
1770770182198,0.6563230201423678,,,
1770770182199,,0.19905000925064087,8.818950653076172,-3.5400002002716064
1770770182236,,0.07905000448226929,,
1770770182237,,,8.914950370788574,-3.3109500408172607
1770770182282,,0.27105000615119934,,
1770770182283,,0.5650500059127808,,-3.2700002193450928
1770770182284,0.2890996135908333,,9.403050422668457,-3.4609501361846924
1770770182344,0.46147560779050617,0.48405003547668457,,
1770770182345,,0.8959500193595886,9.11400032043457,-3.4930500984191895
1770770182382,,0.7930500507354736,9.171000480651855,-3.81600022315979
1770770182399,,0.7660500407218933,9.15195083618164,-3.6289501190185547
1770770182403,0.3956745690965563,0.6990000605583191,9.20895004272461,-3.808950185775757
1770770182456,,0.703950047492981,,
1770770182457,,,9.19005012512207,-3.8329501152038574
1770770182463,0.1553519188577326,,,
1770770182464,,0.4069500267505646,9.193050384521484,-3.744000196456909
1770770182509,,0.09600000083446503,9.09000015258789,-3.808950185775757
1770770182510,,,8.922000885009766,
1770770182544,0.2790588218045015,,,
1770770182545,,-0.22395001351833344,8.91195011138916,-3.598050117492676
1770770182566,,-0.8080500364303589,9.055950164794922,-3.598050117492676
1770770182606,0.6618819394706924,,,
1770770182607,,-1.2340500354766846,8.974950790405273,-3.547950267791748
1770770182664,0.6322301610562,,,
1770770182665,,-1.5100500583648682,,
1770770182666,,-1.6819500923156738,8.721000671386719,-3.5050501823425293
1770770182667,,,8.995950698852539,
1770770182726,0.38535985227195746,,,
1770770182727,,-1.998000144958496,8.587050437927246,-3.4780502319335938
1770770182746,,-2.047950029373169,9.022950172424316,-3.7080001831054688
1770770182769,,-2.059950113296509,8.742000579833984,-3.616950273513794
1770770182812,0.1955837369093722,-1.9860000610351562,8.979000091552734,-3.574050188064575
1770770182840,,-1.6579500436782837,,-3.5209500789642334
1770770182841,,,9.019950866699219,
1770770182869,0.0597648025281574,-1.6960500478744507,,
1770770182870,,-1.8109500408172607,8.97195053100586,-3.44700026512146
1770770182901,,-1.6870501041412354,,
1770770182902,,,8.946000099182129,-3.634050130844116
1770770182929,0.3142969798164468,-1.440000057220459,9.039000511169434,-3.684000253677368
1770770182951,,-1.426050066947937,,-3.646050214767456
1770770182952,,,8.89995002746582,
1770770182968,,-1.4160000085830688,9.013050079345703,-3.6700501441955566
1770770182989,0.28658954765192945,,,
1770770182990,,-1.2850500345230103,9.106050491333008,-3.6220502853393555
1770770183016,,-1.1269500255584717,9.058050155639648,-3.5050501823425293
1770770183060,,-1.0549499988555908,,-3.469050168991089
1770770183061,,,9.109050750732422,
1770770183079,0.1985228482628304,,,
1770770183080,,-1.071000099182129,9.094050407409668,-3.6310501098632812
1770770183118,,-1.0360500812530518,,
1770770183119,,,9.082050323486328,-3.699000120162964
1770770183131,0.15263586282032499,,,
1770770183132,,-0.9400500655174255,9.055950164794922,-3.607950210571289
1770770183151,,-1.0000500679016113,9.103950500488281,-3.535950183868408
1770770183193,0.08129967583108394,-1.0879501104354858,9.10200023651123,-3.5209500789642334
1770770183194,,,9.123000144958496,
1770770183230,,-0.9420000314712524,9.127950668334961,-3.5620501041412354
1770770183261,0.07043620658044926,-0.8800500631332397,9.09000015258789,-3.5929501056671143
1770770183279,,-0.8320500254631042,9.058050155639648,-3.627000093460083
1770770183339,0.12629460692808514,-0.781950056552887,,
1770770183340,,-0.6550500392913818,9.118050575256348,-3.616950273513794
1770770183341,,,9.118050575256348,
1770770183371,,-0.7770000100135803,8.944050788879395,-3.579000234603882
1770770183390,,-0.23805001378059387,9.363000869750977,-3.579000234603882
1770770183395,0.05083623760841816,-0.5879999995231628,,
1770770183396,,,9.103950500488281,-3.544950246810913
1770770183422,,-0.41505002975463867,9.154050827026367,-3.5809502601623535
1770770183446,,-0.42000001668930054,,-3.6150002479553223
1770770183451,,,9.147000312805176,
1770770183475,0.1250869552835837,-0.527999997138977,8.994000434875488,-3.6000001430511475
1770770183495,,-0.30300000309944153,9.166050910949707,-3.6150002479553223
1770770183500,,-0.3630000054836273,9.22605037689209,-3.5929501056671143
1770770183516,0.1360922217912856,,,
1770770183517,,-0.38700002431869507,9.172950744628906,-3.5809502601623535
1770770183554,,-0.41505002975463867,9.145050048828125,-3.5689501762390137
1770770183571,,-0.3769500255584717,,
1770770183572,,,,-3.624000072479248
1770770183573,,,9.196950912475586,
1770770183597,0.09340462047129273,,,
1770770183599,,-0.29295000433921814,9.22800064086914,-3.5809502601623535
1770770183620,,-0.23295001685619354,,
1770770183621,,,9.219000816345215,-3.586050271987915
1770770183658,0.018203614643013274,,,
1770770183659,,-0.22395001351833344,,
1770770183660,,-0.25005000829696655,9.181050300598145,-3.564000129699707
1770770183688,,-0.1879500150680542,,
1770770183689,,,9.19005012512207,-3.574050188064575
1770770183719,0.08305024016408455,,,
1770770183720,,-0.19995000958442688,9.187950134277344,-3.559950113296509
1770770183755,,-0.19005000591278076,9.235950469970703,-3.5500502586364746
1770770183771,,-0.19305001199245453,,
1770770183772,,,9.26400089263916,-3.5380501747131348
1770770183778,0.17046249372923286,-0.3270000219345093,9.075000762939453,-3.6220502853393555
